subject,experiment,task_type,trial_number,target_pair_type,target_pair_condition,target_triad_index,response_correct,response_time
1,1b,speeded_recognition,1,BC,intermixed,4,correct,1228
1,1b,speeded_recognition,2,AB,blocked,1,correct,1157
1,1b,speeded_recognition,3,AB,intermixed,5,correct,1278
1,1b,speeded_recognition,4,AC,blocked,2,correct,1431
1,1b,speeded_recognition,5,AC,intermixed,5,correct,1878
1,1b,speeded_recognition,6,AC,blocked,2,correct,1636
1,1b,speeded_recognition,7,AC,intermixed,4,correct,1324
1,1b,speeded_recognition,8,foil,intermixed,N/A,correct,1277
1,1b,speeded_recognition,9,AC,blocked,3,correct,1049
1,1b,speeded_recognition,10,foil,intermixed,N/A,correct,971
1,1b,speeded_recognition,11,AC,blocked,3,correct,1527
1,1b,speeded_recognition,12,foil,intermixed,N/A,correct,1130
1,1b,speeded_recognition,13,BC,intermixed,4,correct,1073
1,1b,speeded_recognition,14,AB,blocked,3,correct,1436
1,1b,speeded_recognition,15,AB,intermixed,4,correct,1479
1,1b,speeded_recognition,16,BC,blocked,2,correct,1168
1,1b,speeded_recognition,17,AB,intermixed,6,correct,1388
1,1b,speeded_recognition,18,AB,blocked,1,correct,927
1,1b,speeded_recognition,19,foil,blocked,N/A,correct,1465
1,1b,speeded_recognition,20,foil,blocked,N/A,correct,1136
1,1b,speeded_recognition,21,AB,blocked,2,correct,1243
1,1b,speeded_recognition,22,foil,blocked,N/A,correct,1208
1,1b,speeded_recognition,23,AC,intermixed,6,correct,1348
1,1b,speeded_recognition,24,BC,blocked,1,correct,1327
1,1b,speeded_recognition,25,BC,intermixed,5,correct,808
1,1b,speeded_recognition,26,foil,blocked,N/A,correct,908
1,1b,speeded_recognition,27,BC,blocked,1,correct,728
1,1b,speeded_recognition,28,AB,intermixed,5,correct,995
1,1b,speeded_recognition,29,AB,blocked,3,correct,1159
1,1b,speeded_recognition,30,AB,intermixed,6,correct,1329
1,1b,speeded_recognition,31,AC,blocked,1,correct,1175
1,1b,speeded_recognition,32,AC,intermixed,6,correct,1291
1,1b,speeded_recognition,33,AB,blocked,2,correct,956
1,1b,speeded_recognition,34,AC,intermixed,4,correct,1123
1,1b,speeded_recognition,35,BC,blocked,3,correct,1378
1,1b,speeded_recognition,36,foil,blocked,N/A,correct,1085
1,1b,speeded_recognition,37,BC,intermixed,6,correct,859
1,1b,speeded_recognition,38,AC,blocked,1,correct,839
1,1b,speeded_recognition,39,BC,intermixed,5,correct,720
1,1b,speeded_recognition,40,foil,intermixed,N/A,correct,1000
1,1b,speeded_recognition,41,AB,intermixed,4,correct,909
1,1b,speeded_recognition,42,BC,blocked,3,correct,995
1,1b,speeded_recognition,43,foil,intermixed,N/A,correct,1050
1,1b,speeded_recognition,44,BC,intermixed,6,correct,827
1,1b,speeded_recognition,45,foil,intermixed,N/A,correct,1237
1,1b,speeded_recognition,46,foil,blocked,N/A,correct,1483
1,1b,speeded_recognition,47,BC,blocked,2,correct,875
1,1b,speeded_recognition,48,AC,intermixed,5,correct,1612
1,1b,explicit_inference,1,AC,intermixed,4,incorrect,4978
1,1b,explicit_inference,2,AC,blocked,1,correct,4672
1,1b,explicit_inference,3,AC,blocked,2,correct,3689
1,1b,explicit_inference,4,AC,blocked,3,correct,2736
1,1b,explicit_inference,5,AC,intermixed,6,correct,2449
1,1b,explicit_inference,6,AC,intermixed,5,correct,2133
1,1b,explicit_inference,7,AC,intermixed,6,correct,2334
1,1b,explicit_inference,8,AC,blocked,2,correct,2660
1,1b,explicit_inference,9,AC,intermixed,5,correct,1812
1,1b,explicit_inference,10,AC,blocked,1,correct,3583
1,1b,explicit_inference,11,AC,intermixed,4,correct,2908
1,1b,explicit_inference,12,AC,blocked,3,correct,2554
2,1b,speeded_recognition,1,AC,intermixed,4,correct,1625
2,1b,speeded_recognition,2,BC,blocked,2,correct,1224
2,1b,speeded_recognition,3,BC,intermixed,6,correct,1176
2,1b,speeded_recognition,4,foil,blocked,N/A,correct,1271
2,1b,speeded_recognition,5,BC,blocked,3,correct,1607
2,1b,speeded_recognition,6,AB,intermixed,4,correct,1103
2,1b,speeded_recognition,7,AC,blocked,1,correct,1239
2,1b,speeded_recognition,8,AC,intermixed,6,correct,1735
2,1b,speeded_recognition,9,foil,blocked,N/A,correct,1335
2,1b,speeded_recognition,10,AC,intermixed,5,incorrect,1440
2,1b,speeded_recognition,11,foil,blocked,N/A,correct,1527
2,1b,speeded_recognition,12,AB,blocked,1,correct,1279
2,1b,speeded_recognition,13,foil,intermixed,N/A,correct,1487
2,1b,speeded_recognition,14,AC,intermixed,4,correct,1607
2,1b,speeded_recognition,15,AB,blocked,3,correct,1495
2,1b,speeded_recognition,16,BC,intermixed,4,correct,919
2,1b,speeded_recognition,17,foil,blocked,N/A,correct,1359
2,1b,speeded_recognition,18,AC,blocked,2,correct,1248
2,1b,speeded_recognition,19,AC,intermixed,6,correct,1399
2,1b,speeded_recognition,20,AC,blocked,3,correct,1455
2,1b,speeded_recognition,21,foil,intermixed,N/A,correct,1536
2,1b,speeded_recognition,22,AC,blocked,2,correct,1280
2,1b,speeded_recognition,23,BC,intermixed,5,correct,1280
2,1b,speeded_recognition,24,BC,blocked,1,correct,1647
2,1b,speeded_recognition,25,foil,blocked,N/A,correct,1350
2,1b,speeded_recognition,26,BC,intermixed,6,correct,1471
2,1b,speeded_recognition,27,foil,intermixed,N/A,correct,1394
2,1b,speeded_recognition,28,AB,blocked,1,correct,1095
2,1b,speeded_recognition,29,AB,intermixed,5,correct,1135
2,1b,speeded_recognition,30,AC,blocked,3,incorrect,1671
2,1b,speeded_recognition,31,foil,intermixed,N/A,incorrect,1606
2,1b,speeded_recognition,32,AB,intermixed,4,correct,1392
2,1b,speeded_recognition,33,AB,blocked,2,incorrect,1279
2,1b,speeded_recognition,34,AB,intermixed,6,correct,1192
2,1b,speeded_recognition,35,BC,blocked,3,correct,1663
2,1b,speeded_recognition,36,AB,intermixed,5,correct,1127
2,1b,speeded_recognition,37,AB,blocked,2,incorrect,1151
2,1b,speeded_recognition,38,AB,intermixed,6,correct,1072
2,1b,speeded_recognition,39,BC,blocked,2,correct,1095
2,1b,speeded_recognition,40,foil,blocked,N/A,correct,1399
2,1b,speeded_recognition,41,BC,intermixed,5,correct,1366
2,1b,speeded_recognition,42,AC,blocked,1,correct,1184
2,1b,speeded_recognition,43,foil,intermixed,N/A,correct,1422
2,1b,speeded_recognition,44,AC,intermixed,5,correct,1527
2,1b,speeded_recognition,45,foil,intermixed,N/A,correct,1415
2,1b,speeded_recognition,46,BC,blocked,1,correct,1312
2,1b,speeded_recognition,47,BC,intermixed,4,correct,1087
2,1b,speeded_recognition,48,AB,blocked,3,correct,1386
2,1b,explicit_inference,1,AC,blocked,1,correct,5559
2,1b,explicit_inference,2,AC,intermixed,6,incorrect,4102
2,1b,explicit_inference,3,AC,blocked,2,incorrect,2928
2,1b,explicit_inference,4,AC,blocked,3,correct,2800
2,1b,explicit_inference,5,AC,intermixed,4,correct,2559
2,1b,explicit_inference,6,AC,intermixed,5,correct,3028
2,1b,explicit_inference,7,AC,blocked,2,correct,2609
2,1b,explicit_inference,8,AC,intermixed,6,incorrect,3140
2,1b,explicit_inference,9,AC,blocked,3,correct,2591
2,1b,explicit_inference,10,AC,blocked,1,incorrect,3170
2,1b,explicit_inference,11,AC,intermixed,5,correct,2437
2,1b,explicit_inference,12,AC,intermixed,4,correct,3139
3,1b,speeded_recognition,1,AB,blocked,1,correct,1121
3,1b,speeded_recognition,2,foil,intermixed,N/A,correct,1649
3,1b,speeded_recognition,3,BC,intermixed,6,correct,998
3,1b,speeded_recognition,4,foil,intermixed,N/A,correct,1384
3,1b,speeded_recognition,5,AB,blocked,3,correct,1434
3,1b,speeded_recognition,6,foil,blocked,N/A,correct,1461
3,1b,speeded_recognition,7,BC,blocked,2,correct,836
3,1b,speeded_recognition,8,foil,intermixed,N/A,correct,1339
3,1b,speeded_recognition,9,AC,intermixed,5,correct,1328
3,1b,speeded_recognition,10,BC,blocked,3,correct,1177
3,1b,speeded_recognition,11,BC,intermixed,5,incorrect,2083
3,1b,speeded_recognition,12,foil,intermixed,N/A,correct,1273
3,1b,speeded_recognition,13,BC,blocked,3,correct,1519
3,1b,speeded_recognition,14,AC,intermixed,6,correct,1173
3,1b,speeded_recognition,15,AC,blocked,2,correct,1332
3,1b,speeded_recognition,16,BC,intermixed,6,correct,859
3,1b,speeded_recognition,17,AC,blocked,3,correct,1463
3,1b,speeded_recognition,18,AB,intermixed,6,correct,1263
3,1b,speeded_recognition,19,foil,blocked,N/A,correct,949
3,1b,speeded_recognition,20,BC,intermixed,4,correct,851
3,1b,speeded_recognition,21,AC,blocked,2,correct,1654
3,1b,speeded_recognition,22,AB,intermixed,4,correct,806
3,1b,speeded_recognition,23,foil,intermixed,N/A,correct,1428
3,1b,speeded_recognition,24,BC,blocked,2,correct,1361
3,1b,speeded_recognition,25,foil,blocked,N/A,correct,959
3,1b,speeded_recognition,26,AC,intermixed,4,incorrect,815
3,1b,speeded_recognition,27,AC,blocked,1,correct,944
3,1b,speeded_recognition,28,foil,intermixed,N/A,correct,1299
3,1b,speeded_recognition,29,AC,intermixed,5,correct,1359
3,1b,speeded_recognition,30,AB,blocked,1,correct,1415
3,1b,speeded_recognition,31,AB,intermixed,5,correct,844
3,1b,speeded_recognition,32,foil,blocked,N/A,correct,957
3,1b,speeded_recognition,33,AC,intermixed,4,incorrect,1053
3,1b,speeded_recognition,34,BC,blocked,1,incorrect,1195
3,1b,speeded_recognition,35,BC,intermixed,4,correct,911
3,1b,speeded_recognition,36,AC,blocked,1,correct,1295
3,1b,speeded_recognition,37,AB,intermixed,6,incorrect,1138
3,1b,speeded_recognition,38,AB,blocked,3,correct,752
3,1b,speeded_recognition,39,AB,intermixed,4,correct,1010
3,1b,speeded_recognition,40,foil,blocked,N/A,correct,1157
3,1b,speeded_recognition,41,BC,blocked,1,correct,1746
3,1b,speeded_recognition,42,AB,intermixed,5,correct,714
3,1b,speeded_recognition,43,AC,blocked,3,correct,1007
3,1b,speeded_recognition,44,AC,intermixed,6,correct,860
3,1b,speeded_recognition,45,AB,blocked,2,correct,1364
3,1b,speeded_recognition,46,BC,intermixed,5,incorrect,672
3,1b,speeded_recognition,47,foil,blocked,N/A,correct,815
3,1b,speeded_recognition,48,AB,blocked,2,correct,1534
3,1b,explicit_inference,1,AC,intermixed,6,correct,5587
3,1b,explicit_inference,2,AC,blocked,1,incorrect,2045
3,1b,explicit_inference,3,AC,blocked,2,correct,1374
3,1b,explicit_inference,4,AC,blocked,3,correct,2589
3,1b,explicit_inference,5,AC,intermixed,5,correct,1264
3,1b,explicit_inference,6,AC,intermixed,4,correct,2142
3,1b,explicit_inference,7,AC,intermixed,6,correct,2452
3,1b,explicit_inference,8,AC,blocked,3,incorrect,2239
3,1b,explicit_inference,9,AC,intermixed,5,incorrect,1676
3,1b,explicit_inference,10,AC,blocked,1,correct,1895
3,1b,explicit_inference,11,AC,intermixed,4,correct,1613
3,1b,explicit_inference,12,AC,blocked,2,incorrect,1944
4,1b,speeded_recognition,1,AC,blocked,2,incorrect,1127
4,1b,speeded_recognition,2,foil,intermixed,N/A,correct,1823
4,1b,speeded_recognition,3,BC,intermixed,5,correct,1342
4,1b,speeded_recognition,4,BC,blocked,3,correct,1270
4,1b,speeded_recognition,5,AC,intermixed,4,correct,2126
4,1b,speeded_recognition,6,BC,blocked,1,correct,1535
4,1b,speeded_recognition,7,foil,blocked,N/A,correct,1583
4,1b,speeded_recognition,8,BC,intermixed,4,correct,1046
4,1b,speeded_recognition,9,AB,blocked,2,correct,1870
4,1b,speeded_recognition,10,AB,intermixed,6,correct,1054
4,1b,speeded_recognition,11,AC,blocked,3,correct,1710
4,1b,speeded_recognition,12,AB,intermixed,5,correct,1488
4,1b,speeded_recognition,13,foil,blocked,N/A,correct,1486
4,1b,speeded_recognition,14,AB,blocked,2,correct,1182
4,1b,speeded_recognition,15,foil,blocked,N/A,correct,1375
4,1b,speeded_recognition,16,AC,intermixed,5,correct,2119
4,1b,speeded_recognition,17,foil,intermixed,N/A,correct,1262
4,1b,speeded_recognition,18,AC,blocked,3,correct,999
4,1b,speeded_recognition,19,AC,intermixed,4,correct,1150
4,1b,speeded_recognition,20,AB,blocked,1,correct,1143
4,1b,speeded_recognition,21,AC,intermixed,5,incorrect,1774
4,1b,speeded_recognition,22,foil,intermixed,N/A,correct,1047
4,1b,speeded_recognition,23,BC,intermixed,5,correct,1200
4,1b,speeded_recognition,24,foil,blocked,N/A,correct,1207
4,1b,speeded_recognition,25,AB,blocked,3,correct,1112
4,1b,speeded_recognition,26,AC,intermixed,6,correct,1278
4,1b,speeded_recognition,27,AB,blocked,3,correct,863
4,1b,speeded_recognition,28,foil,intermixed,N/A,correct,2055
4,1b,speeded_recognition,29,BC,intermixed,6,correct,1094
4,1b,speeded_recognition,30,BC,blocked,3,correct,1687
4,1b,speeded_recognition,31,AB,intermixed,4,correct,1263
4,1b,speeded_recognition,32,AB,blocked,1,correct,975
4,1b,speeded_recognition,33,foil,blocked,N/A,correct,1567
4,1b,speeded_recognition,34,AB,intermixed,5,correct,1063
4,1b,speeded_recognition,35,foil,intermixed,N/A,correct,1359
4,1b,speeded_recognition,36,AC,blocked,1,correct,1494
4,1b,speeded_recognition,37,BC,intermixed,6,correct,894
4,1b,speeded_recognition,38,BC,blocked,2,correct,1494
4,1b,speeded_recognition,39,AB,intermixed,6,correct,966
4,1b,speeded_recognition,40,AC,blocked,1,correct,967
4,1b,speeded_recognition,41,foil,intermixed,N/A,correct,1285
4,1b,speeded_recognition,42,AB,intermixed,4,correct,1351
4,1b,speeded_recognition,43,AC,blocked,2,correct,1727
4,1b,speeded_recognition,44,AC,intermixed,6,correct,1190
4,1b,speeded_recognition,45,BC,blocked,2,correct,1350
4,1b,speeded_recognition,46,BC,intermixed,4,correct,1111
4,1b,speeded_recognition,47,foil,blocked,N/A,correct,1327
4,1b,speeded_recognition,48,BC,blocked,1,correct,1301
4,1b,explicit_inference,1,AC,blocked,3,correct,9466
4,1b,explicit_inference,2,AC,intermixed,5,correct,3286
4,1b,explicit_inference,3,AC,intermixed,4,correct,3083
4,1b,explicit_inference,4,AC,blocked,1,correct,2736
4,1b,explicit_inference,5,AC,blocked,2,correct,2877
4,1b,explicit_inference,6,AC,intermixed,6,correct,1714
4,1b,explicit_inference,7,AC,blocked,1,correct,4500
4,1b,explicit_inference,8,AC,intermixed,6,correct,2219
4,1b,explicit_inference,9,AC,blocked,2,correct,1510
4,1b,explicit_inference,10,AC,blocked,3,correct,2386
4,1b,explicit_inference,11,AC,intermixed,5,correct,3862
4,1b,explicit_inference,12,AC,intermixed,4,correct,1665
5,1b,speeded_recognition,1,AC,blocked,2,correct,1583
5,1b,speeded_recognition,2,foil,blocked,N/A,correct,1326
5,1b,speeded_recognition,3,AC,intermixed,6,correct,1588
5,1b,speeded_recognition,4,foil,intermixed,N/A,correct,1461
5,1b,speeded_recognition,5,BC,blocked,3,incorrect,1789
5,1b,speeded_recognition,6,BC,intermixed,5,correct,1715
5,1b,speeded_recognition,7,AB,blocked,1,correct,1255
5,1b,speeded_recognition,8,foil,intermixed,N/A,correct,1732
5,1b,speeded_recognition,9,AC,intermixed,4,correct,1268
5,1b,speeded_recognition,10,BC,blocked,3,correct,1418
5,1b,speeded_recognition,11,foil,blocked,N/A,correct,1916
5,1b,speeded_recognition,12,foil,intermixed,N/A,incorrect,2972
5,1b,speeded_recognition,13,foil,blocked,N/A,correct,1883
5,1b,speeded_recognition,14,AB,intermixed,5,correct,1981
5,1b,speeded_recognition,15,foil,blocked,N/A,correct,1556
5,1b,speeded_recognition,16,BC,blocked,1,correct,1405
5,1b,speeded_recognition,17,AC,intermixed,6,correct,1501
5,1b,speeded_recognition,18,AC,blocked,2,correct,1445
5,1b,speeded_recognition,19,foil,intermixed,N/A,correct,1729
5,1b,speeded_recognition,20,AB,intermixed,4,incorrect,983
5,1b,speeded_recognition,21,AC,blocked,1,correct,1543
5,1b,speeded_recognition,22,AC,intermixed,5,correct,2394
5,1b,speeded_recognition,23,AC,blocked,1,correct,1211
5,1b,speeded_recognition,24,AC,intermixed,5,correct,2094
5,1b,speeded_recognition,25,AB,blocked,2,correct,1583
5,1b,speeded_recognition,26,BC,intermixed,6,correct,1490
5,1b,speeded_recognition,27,BC,blocked,1,correct,997
5,1b,speeded_recognition,28,BC,intermixed,4,correct,968
5,1b,speeded_recognition,29,foil,blocked,N/A,correct,1722
5,1b,speeded_recognition,30,AB,blocked,3,correct,1700
5,1b,speeded_recognition,31,AB,intermixed,6,correct,1270
5,1b,speeded_recognition,32,AB,blocked,1,correct,1391
5,1b,speeded_recognition,33,AB,intermixed,5,correct,1461
5,1b,speeded_recognition,34,foil,blocked,N/A,correct,1662
5,1b,speeded_recognition,35,BC,intermixed,4,incorrect,1035
5,1b,speeded_recognition,36,AB,blocked,3,correct,1249
5,1b,speeded_recognition,37,BC,intermixed,6,correct,1117
5,1b,speeded_recognition,38,BC,blocked,2,correct,1534
5,1b,speeded_recognition,39,AB,intermixed,4,correct,866
5,1b,speeded_recognition,40,AC,blocked,3,correct,1500
5,1b,speeded_recognition,41,AB,intermixed,6,incorrect,2513
5,1b,speeded_recognition,42,foil,intermixed,N/A,correct,1084
5,1b,speeded_recognition,43,BC,blocked,2,correct,2001
5,1b,speeded_recognition,44,BC,intermixed,5,correct,1365
5,1b,speeded_recognition,45,foil,intermixed,N/A,correct,1127
5,1b,speeded_recognition,46,AB,blocked,2,incorrect,1578
5,1b,speeded_recognition,47,AC,intermixed,4,incorrect,1107
5,1b,speeded_recognition,48,AC,blocked,3,correct,1395
5,1b,explicit_inference,1,AC,blocked,1,incorrect,6099
5,1b,explicit_inference,2,AC,intermixed,6,correct,5594
5,1b,explicit_inference,3,AC,blocked,3,correct,3990
5,1b,explicit_inference,4,AC,intermixed,4,correct,1594
5,1b,explicit_inference,5,AC,blocked,2,correct,7212
5,1b,explicit_inference,6,AC,intermixed,5,correct,3973
5,1b,explicit_inference,7,AC,intermixed,6,correct,2141
5,1b,explicit_inference,8,AC,blocked,1,correct,2382
5,1b,explicit_inference,9,AC,blocked,3,correct,2129
5,1b,explicit_inference,10,AC,intermixed,4,correct,1759
5,1b,explicit_inference,11,AC,blocked,2,correct,3625
5,1b,explicit_inference,12,AC,intermixed,5,correct,5040
6,1b,speeded_recognition,1,AB,intermixed,6,correct,2398
6,1b,speeded_recognition,2,AB,blocked,3,correct,1834
6,1b,speeded_recognition,3,BC,intermixed,6,correct,1986
6,1b,speeded_recognition,4,foil,intermixed,N/A,correct,2215
6,1b,speeded_recognition,5,AB,blocked,2,correct,2461
6,1b,speeded_recognition,6,AC,intermixed,6,correct,2386
6,1b,speeded_recognition,7,AB,blocked,1,correct,1441
6,1b,speeded_recognition,8,AB,intermixed,5,correct,2035
6,1b,speeded_recognition,9,foil,blocked,N/A,N/A,N/A
6,1b,speeded_recognition,10,AB,blocked,2,correct,1333
6,1b,speeded_recognition,11,BC,intermixed,4,correct,1878
6,1b,speeded_recognition,12,foil,intermixed,N/A,correct,2110
6,1b,speeded_recognition,13,BC,blocked,1,correct,2133
6,1b,speeded_recognition,14,AC,intermixed,4,correct,2016
6,1b,speeded_recognition,15,AC,blocked,3,correct,2914
6,1b,speeded_recognition,16,BC,intermixed,5,correct,1518
6,1b,speeded_recognition,17,foil,blocked,N/A,correct,2159
6,1b,speeded_recognition,18,foil,intermixed,N/A,correct,2122
6,1b,speeded_recognition,19,AC,blocked,2,incorrect,2756
6,1b,speeded_recognition,20,AC,intermixed,6,correct,2307
6,1b,speeded_recognition,21,AB,blocked,1,correct,1302
6,1b,speeded_recognition,22,foil,blocked,N/A,incorrect,2721
6,1b,speeded_recognition,23,AC,intermixed,4,incorrect,1739
6,1b,speeded_recognition,24,foil,blocked,N/A,correct,2053
6,1b,speeded_recognition,25,BC,blocked,2,incorrect,2747
6,1b,speeded_recognition,26,AB,intermixed,5,correct,1622
6,1b,speeded_recognition,27,AC,blocked,3,correct,1775
6,1b,speeded_recognition,28,AC,intermixed,5,incorrect,2597
6,1b,speeded_recognition,29,AC,blocked,1,correct,3267
6,1b,speeded_recognition,30,AB,intermixed,4,correct,1122
6,1b,speeded_recognition,31,foil,intermixed,N/A,correct,2286
6,1b,speeded_recognition,32,BC,blocked,1,correct,1168
6,1b,speeded_recognition,33,BC,intermixed,6,correct,1349
6,1b,speeded_recognition,34,BC,blocked,3,correct,1581
6,1b,speeded_recognition,35,AB,intermixed,6,correct,1166
6,1b,speeded_recognition,36,BC,blocked,2,correct,1690
6,1b,speeded_recognition,37,foil,intermixed,N/A,correct,1448
6,1b,speeded_recognition,38,BC,intermixed,5,correct,1864
6,1b,speeded_recognition,39,foil,blocked,N/A,correct,1462
6,1b,speeded_recognition,40,AB,blocked,3,correct,1961
6,1b,speeded_recognition,41,AB,intermixed,4,correct,1223
6,1b,speeded_recognition,42,AC,blocked,1,correct,2777
6,1b,speeded_recognition,43,foil,blocked,N/A,incorrect,1611
6,1b,speeded_recognition,44,BC,intermixed,4,correct,1100
6,1b,speeded_recognition,45,AC,blocked,2,correct,2410
6,1b,speeded_recognition,46,foil,intermixed,N/A,correct,1302
6,1b,speeded_recognition,47,AC,intermixed,5,incorrect,1699
6,1b,speeded_recognition,48,BC,blocked,3,correct,1311
6,1b,explicit_inference,1,AC,intermixed,4,correct,7944
6,1b,explicit_inference,2,AC,intermixed,6,correct,3557
6,1b,explicit_inference,3,AC,blocked,1,correct,5736
6,1b,explicit_inference,4,AC,blocked,2,correct,3782
6,1b,explicit_inference,5,AC,intermixed,5,correct,3898
6,1b,explicit_inference,6,AC,blocked,3,incorrect,3977
6,1b,explicit_inference,7,AC,intermixed,4,correct,3017
6,1b,explicit_inference,8,AC,blocked,1,correct,4465
6,1b,explicit_inference,9,AC,blocked,3,correct,2514
6,1b,explicit_inference,10,AC,blocked,2,correct,3899
6,1b,explicit_inference,11,AC,intermixed,6,correct,2876
6,1b,explicit_inference,12,AC,intermixed,5,correct,3059
7,1b,speeded_recognition,1,AC,blocked,2,correct,1357
7,1b,speeded_recognition,2,foil,intermixed,N/A,correct,1458
7,1b,speeded_recognition,3,AC,intermixed,5,correct,1370
7,1b,speeded_recognition,4,AC,blocked,1,correct,1209
7,1b,speeded_recognition,5,BC,intermixed,4,correct,1277
7,1b,speeded_recognition,6,foil,intermixed,N/A,correct,1311
7,1b,speeded_recognition,7,foil,intermixed,N/A,correct,1443
7,1b,speeded_recognition,8,AB,blocked,1,correct,1144
7,1b,speeded_recognition,9,BC,intermixed,4,correct,1771
7,1b,speeded_recognition,10,AC,blocked,1,correct,1601
7,1b,speeded_recognition,11,BC,intermixed,6,incorrect,1648
7,1b,speeded_recognition,12,foil,blocked,N/A,correct,1512
7,1b,speeded_recognition,13,foil,blocked,N/A,correct,1240
7,1b,speeded_recognition,14,AB,blocked,2,correct,1396
7,1b,speeded_recognition,15,AB,intermixed,4,correct,1549
7,1b,speeded_recognition,16,foil,intermixed,N/A,correct,1641
7,1b,speeded_recognition,17,AC,intermixed,4,correct,1566
7,1b,speeded_recognition,18,AB,blocked,3,correct,1044
7,1b,speeded_recognition,19,AB,intermixed,6,correct,1160
7,1b,speeded_recognition,20,BC,blocked,1,correct,1378
7,1b,speeded_recognition,21,BC,intermixed,5,correct,1350
7,1b,speeded_recognition,22,BC,blocked,3,correct,1151
7,1b,speeded_recognition,23,foil,intermixed,N/A,correct,2018
7,1b,speeded_recognition,24,AB,intermixed,5,correct,936
7,1b,speeded_recognition,25,AB,blocked,3,correct,977
7,1b,speeded_recognition,26,AC,intermixed,6,correct,1429
7,1b,speeded_recognition,27,AB,blocked,2,correct,1179
7,1b,speeded_recognition,28,foil,blocked,N/A,correct,1276
7,1b,speeded_recognition,29,AB,blocked,1,correct,858
7,1b,speeded_recognition,30,AC,intermixed,4,correct,1502
7,1b,speeded_recognition,31,BC,blocked,3,correct,1138
7,1b,speeded_recognition,32,AC,intermixed,6,correct,1392
7,1b,speeded_recognition,33,AC,blocked,2,correct,2507
7,1b,speeded_recognition,34,AB,intermixed,6,correct,1162
7,1b,speeded_recognition,35,BC,blocked,1,correct,1095
7,1b,speeded_recognition,36,BC,intermixed,6,correct,851
7,1b,speeded_recognition,37,foil,blocked,N/A,correct,979
7,1b,speeded_recognition,38,BC,blocked,2,correct,1450
7,1b,speeded_recognition,39,AB,intermixed,4,correct,1406
7,1b,speeded_recognition,40,foil,blocked,N/A,correct,1106
7,1b,speeded_recognition,41,AC,intermixed,5,correct,1182
7,1b,speeded_recognition,42,AC,blocked,3,correct,1035
7,1b,speeded_recognition,43,BC,intermixed,5,correct,1542
7,1b,speeded_recognition,44,BC,blocked,2,correct,1192
7,1b,speeded_recognition,45,AB,intermixed,5,correct,878
7,1b,speeded_recognition,46,foil,intermixed,N/A,correct,1310
7,1b,speeded_recognition,47,AC,blocked,3,correct,909
7,1b,speeded_recognition,48,foil,blocked,N/A,correct,1165
7,1b,explicit_inference,1,AC,intermixed,4,correct,8020
7,1b,explicit_inference,2,AC,intermixed,6,correct,5737
7,1b,explicit_inference,3,AC,blocked,1,correct,2744
7,1b,explicit_inference,4,AC,intermixed,5,correct,2667
7,1b,explicit_inference,5,AC,blocked,3,correct,2543
7,1b,explicit_inference,6,AC,blocked,2,correct,2340
7,1b,explicit_inference,7,AC,blocked,1,correct,2378
7,1b,explicit_inference,8,AC,blocked,3,correct,1689
7,1b,explicit_inference,9,AC,blocked,2,correct,1758
7,1b,explicit_inference,10,AC,intermixed,6,correct,1909
7,1b,explicit_inference,11,AC,intermixed,4,correct,2299
7,1b,explicit_inference,12,AC,intermixed,5,correct,1986
8,1b,speeded_recognition,1,BC,intermixed,4,correct,1849
8,1b,speeded_recognition,2,foil,intermixed,N/A,N/A,N/A
8,1b,speeded_recognition,3,BC,blocked,3,correct,1609
8,1b,speeded_recognition,4,AB,intermixed,6,correct,1415
8,1b,speeded_recognition,5,foil,blocked,N/A,correct,1400
8,1b,speeded_recognition,6,BC,intermixed,5,incorrect,3167
8,1b,speeded_recognition,7,AC,blocked,3,correct,1647
8,1b,speeded_recognition,8,AC,intermixed,4,correct,2273
8,1b,speeded_recognition,9,foil,intermixed,N/A,correct,1706
8,1b,speeded_recognition,10,BC,blocked,2,correct,1646
8,1b,speeded_recognition,11,AB,intermixed,4,correct,2134
8,1b,speeded_recognition,12,AC,blocked,1,incorrect,2706
8,1b,speeded_recognition,13,AC,intermixed,6,incorrect,2304
8,1b,speeded_recognition,14,BC,blocked,2,correct,1383
8,1b,speeded_recognition,15,AB,intermixed,5,incorrect,2792
8,1b,speeded_recognition,16,AB,blocked,2,correct,1246
8,1b,speeded_recognition,17,foil,intermixed,N/A,correct,1583
8,1b,speeded_recognition,18,AC,intermixed,5,correct,2470
8,1b,speeded_recognition,19,AB,blocked,1,correct,1344
8,1b,speeded_recognition,20,BC,intermixed,4,correct,2594
8,1b,speeded_recognition,21,foil,blocked,N/A,correct,2784
8,1b,speeded_recognition,22,BC,blocked,1,correct,1615
8,1b,speeded_recognition,23,foil,blocked,N/A,correct,1519
8,1b,speeded_recognition,24,AC,blocked,1,correct,2158
8,1b,speeded_recognition,25,foil,intermixed,N/A,correct,1615
8,1b,speeded_recognition,26,AC,blocked,3,incorrect,2710
8,1b,speeded_recognition,27,AB,intermixed,6,correct,2735
8,1b,speeded_recognition,28,foil,blocked,N/A,correct,1695
8,1b,speeded_recognition,29,BC,intermixed,6,correct,1360
8,1b,speeded_recognition,30,AB,blocked,3,correct,2576
8,1b,speeded_recognition,31,AC,intermixed,5,incorrect,1514
8,1b,speeded_recognition,32,AB,blocked,1,correct,1415
8,1b,speeded_recognition,33,foil,intermixed,N/A,correct,1685
8,1b,speeded_recognition,34,AB,blocked,2,correct,1063
8,1b,speeded_recognition,35,BC,intermixed,5,correct,1576
8,1b,speeded_recognition,36,AC,blocked,2,correct,2712
8,1b,speeded_recognition,37,BC,intermixed,6,correct,1824
8,1b,speeded_recognition,38,BC,blocked,1,correct,1615
8,1b,speeded_recognition,39,AB,intermixed,5,correct,1855
8,1b,speeded_recognition,40,foil,blocked,N/A,correct,1495
8,1b,speeded_recognition,41,AB,blocked,3,incorrect,1512
8,1b,speeded_recognition,42,AB,intermixed,4,N/A,N/A
8,1b,speeded_recognition,43,foil,intermixed,N/A,correct,1521
8,1b,speeded_recognition,44,AC,blocked,2,correct,1160
8,1b,speeded_recognition,45,AC,intermixed,4,correct,2174
8,1b,speeded_recognition,46,foil,blocked,N/A,correct,1534
8,1b,speeded_recognition,47,BC,blocked,3,correct,1992
8,1b,speeded_recognition,48,AC,intermixed,6,correct,2006
8,1b,explicit_inference,1,AC,intermixed,6,incorrect,2850
8,1b,explicit_inference,2,AC,blocked,2,incorrect,3309
8,1b,explicit_inference,3,AC,intermixed,5,correct,2531
8,1b,explicit_inference,4,AC,intermixed,4,correct,2507
8,1b,explicit_inference,5,AC,blocked,1,correct,2974
8,1b,explicit_inference,6,AC,blocked,3,incorrect,3226
8,1b,explicit_inference,7,AC,intermixed,4,correct,2610
8,1b,explicit_inference,8,AC,blocked,2,correct,2490
8,1b,explicit_inference,9,AC,blocked,3,incorrect,2469
8,1b,explicit_inference,10,AC,intermixed,5,correct,2685
8,1b,explicit_inference,11,AC,intermixed,6,incorrect,3506
8,1b,explicit_inference,12,AC,blocked,1,correct,2004
9,1b,speeded_recognition,1,AC,blocked,2,incorrect,864
9,1b,speeded_recognition,2,BC,intermixed,6,correct,1411
9,1b,speeded_recognition,3,AB,blocked,2,correct,1066
9,1b,speeded_recognition,4,AC,intermixed,6,correct,1048
9,1b,speeded_recognition,5,BC,blocked,1,correct,1758
9,1b,speeded_recognition,6,AB,intermixed,6,correct,993
9,1b,speeded_recognition,7,foil,intermixed,N/A,correct,1411
9,1b,speeded_recognition,8,BC,blocked,3,correct,899
9,1b,speeded_recognition,9,foil,intermixed,N/A,incorrect,1513
9,1b,speeded_recognition,10,BC,intermixed,5,correct,959
9,1b,speeded_recognition,11,AB,blocked,1,correct,1240
9,1b,speeded_recognition,12,AB,intermixed,5,correct,1441
9,1b,speeded_recognition,13,BC,blocked,2,correct,949
9,1b,speeded_recognition,14,BC,intermixed,6,incorrect,1316
9,1b,speeded_recognition,15,AC,blocked,1,correct,1533
9,1b,speeded_recognition,16,AB,intermixed,4,correct,1315
9,1b,speeded_recognition,17,foil,blocked,N/A,correct,917
9,1b,speeded_recognition,18,AB,blocked,1,correct,1320
9,1b,speeded_recognition,19,BC,intermixed,5,correct,725
9,1b,speeded_recognition,20,AC,blocked,2,correct,1201
9,1b,speeded_recognition,21,AC,intermixed,6,correct,987
9,1b,speeded_recognition,22,BC,blocked,1,correct,1486
9,1b,speeded_recognition,23,AC,intermixed,5,incorrect,1709
9,1b,speeded_recognition,24,BC,blocked,3,correct,835
9,1b,speeded_recognition,25,AC,intermixed,4,correct,1399
9,1b,speeded_recognition,26,foil,blocked,N/A,correct,967
9,1b,speeded_recognition,27,foil,intermixed,N/A,correct,1125
9,1b,speeded_recognition,28,AC,intermixed,5,correct,1323
9,1b,speeded_recognition,29,AB,blocked,3,correct,932
9,1b,speeded_recognition,30,foil,blocked,N/A,correct,1197
9,1b,speeded_recognition,31,BC,blocked,2,correct,937
9,1b,speeded_recognition,32,BC,intermixed,4,correct,921
9,1b,speeded_recognition,33,AC,blocked,1,correct,965
9,1b,speeded_recognition,34,AB,intermixed,6,correct,844
9,1b,speeded_recognition,35,AC,blocked,3,correct,1204
9,1b,speeded_recognition,36,foil,blocked,N/A,correct,972
9,1b,speeded_recognition,37,AB,intermixed,4,correct,1377
9,1b,speeded_recognition,38,foil,intermixed,N/A,correct,801
9,1b,speeded_recognition,39,AB,intermixed,5,correct,1091
9,1b,speeded_recognition,40,AB,blocked,3,correct,818
9,1b,speeded_recognition,41,foil,intermixed,N/A,correct,1181
9,1b,speeded_recognition,42,BC,intermixed,4,correct,1092
9,1b,speeded_recognition,43,foil,blocked,N/A,correct,1196
9,1b,speeded_recognition,44,foil,blocked,N/A,correct,979
9,1b,speeded_recognition,45,AC,intermixed,4,correct,1075
9,1b,speeded_recognition,46,AC,blocked,3,correct,1087
9,1b,speeded_recognition,47,foil,intermixed,N/A,correct,1451
9,1b,speeded_recognition,48,AB,blocked,2,correct,852
9,1b,explicit_inference,1,AC,blocked,3,correct,2531
9,1b,explicit_inference,2,AC,intermixed,6,incorrect,2207
9,1b,explicit_inference,3,AC,blocked,1,correct,2688
9,1b,explicit_inference,4,AC,blocked,2,correct,1955
9,1b,explicit_inference,5,AC,intermixed,5,correct,1494
9,1b,explicit_inference,6,AC,intermixed,4,correct,2244
9,1b,explicit_inference,7,AC,intermixed,6,incorrect,2397
9,1b,explicit_inference,8,AC,intermixed,4,correct,2052
9,1b,explicit_inference,9,AC,intermixed,5,correct,2296
9,1b,explicit_inference,10,AC,blocked,2,correct,1960
9,1b,explicit_inference,11,AC,blocked,1,correct,2177
9,1b,explicit_inference,12,AC,blocked,3,correct,3921
10,1b,speeded_recognition,1,AC,intermixed,5,correct,1268
10,1b,speeded_recognition,2,AC,blocked,3,correct,1007
10,1b,speeded_recognition,3,AB,intermixed,5,correct,974
10,1b,speeded_recognition,4,BC,blocked,1,correct,1129
10,1b,speeded_recognition,5,AC,intermixed,4,correct,1176
10,1b,speeded_recognition,6,AC,blocked,3,correct,1063
10,1b,speeded_recognition,7,BC,intermixed,6,correct,1128
10,1b,speeded_recognition,8,AB,blocked,3,correct,949
10,1b,speeded_recognition,9,foil,intermixed,N/A,correct,1210
10,1b,speeded_recognition,10,BC,blocked,3,correct,715
10,1b,speeded_recognition,11,foil,blocked,N/A,correct,1577
10,1b,speeded_recognition,12,AB,intermixed,4,correct,1007
10,1b,speeded_recognition,13,AB,blocked,1,incorrect,1086
10,1b,speeded_recognition,14,foil,blocked,N/A,correct,1308
10,1b,speeded_recognition,15,AB,intermixed,6,correct,1104
10,1b,speeded_recognition,16,BC,blocked,2,correct,821
10,1b,speeded_recognition,17,BC,intermixed,6,correct,1068
10,1b,speeded_recognition,18,AC,blocked,2,correct,1003
10,1b,speeded_recognition,19,foil,blocked,N/A,correct,1158
10,1b,speeded_recognition,20,BC,intermixed,5,correct,898
10,1b,speeded_recognition,21,AB,blocked,2,correct,904
10,1b,speeded_recognition,22,AC,intermixed,6,correct,1206
10,1b,speeded_recognition,23,BC,blocked,2,correct,1021
10,1b,speeded_recognition,24,AB,intermixed,4,correct,784
10,1b,speeded_recognition,25,foil,blocked,N/A,correct,1222
10,1b,speeded_recognition,26,AC,intermixed,6,incorrect,1425
10,1b,speeded_recognition,27,BC,blocked,3,correct,785
10,1b,speeded_recognition,28,BC,intermixed,4,correct,1309
10,1b,speeded_recognition,29,AB,blocked,1,correct,921
10,1b,speeded_recognition,30,foil,intermixed,N/A,correct,940
10,1b,speeded_recognition,31,foil,blocked,N/A,correct,947
10,1b,speeded_recognition,32,AC,intermixed,5,correct,1025
10,1b,speeded_recognition,33,AC,blocked,2,correct,1077
10,1b,speeded_recognition,34,AB,intermixed,5,correct,738
10,1b,speeded_recognition,35,AB,blocked,3,correct,816
10,1b,speeded_recognition,36,foil,intermixed,N/A,correct,1083
10,1b,speeded_recognition,37,foil,intermixed,N/A,correct,1016
10,1b,speeded_recognition,38,AB,blocked,2,correct,716
10,1b,speeded_recognition,39,foil,intermixed,N/A,correct,764
10,1b,speeded_recognition,40,AC,intermixed,4,correct,1390
10,1b,speeded_recognition,41,AC,blocked,1,correct,1074
10,1b,speeded_recognition,42,foil,intermixed,N/A,correct,1199
10,1b,speeded_recognition,43,AB,intermixed,6,correct,787
10,1b,speeded_recognition,44,foil,blocked,N/A,correct,1071
10,1b,speeded_recognition,45,BC,blocked,1,correct,891
10,1b,speeded_recognition,46,BC,intermixed,4,correct,1118
10,1b,speeded_recognition,47,AC,blocked,1,correct,978
10,1b,speeded_recognition,48,BC,intermixed,5,correct,953
10,1b,explicit_inference,1,AC,intermixed,4,correct,7110
10,1b,explicit_inference,2,AC,intermixed,5,correct,1542
10,1b,explicit_inference,3,AC,blocked,3,correct,1607
10,1b,explicit_inference,4,AC,intermixed,6,incorrect,1790
10,1b,explicit_inference,5,AC,blocked,1,incorrect,1735
10,1b,explicit_inference,6,AC,blocked,2,incorrect,2575
10,1b,explicit_inference,7,AC,intermixed,6,incorrect,1556
10,1b,explicit_inference,8,AC,intermixed,5,correct,1158
10,1b,explicit_inference,9,AC,blocked,1,correct,1415
10,1b,explicit_inference,10,AC,blocked,3,correct,1535
10,1b,explicit_inference,11,AC,blocked,2,correct,2007
10,1b,explicit_inference,12,AC,intermixed,4,correct,1478
11,1b,speeded_recognition,1,AB,intermixed,5,correct,1614
11,1b,speeded_recognition,2,foil,intermixed,N/A,correct,1543
11,1b,speeded_recognition,3,AC,blocked,3,correct,1315
11,1b,speeded_recognition,4,AC,intermixed,5,correct,1671
11,1b,speeded_recognition,5,foil,intermixed,N/A,correct,1670
11,1b,speeded_recognition,6,AB,blocked,3,correct,1775
11,1b,speeded_recognition,7,BC,intermixed,4,correct,1198
11,1b,speeded_recognition,8,BC,blocked,1,correct,1344
11,1b,speeded_recognition,9,AC,intermixed,5,correct,1376
11,1b,speeded_recognition,10,AB,blocked,2,correct,1364
11,1b,speeded_recognition,11,AC,intermixed,4,correct,1489
11,1b,speeded_recognition,12,AC,blocked,2,correct,1575
11,1b,speeded_recognition,13,foil,intermixed,N/A,correct,1425
11,1b,speeded_recognition,14,AB,blocked,1,correct,2014
11,1b,speeded_recognition,15,foil,blocked,N/A,correct,1403
11,1b,speeded_recognition,16,AB,intermixed,4,correct,1701
11,1b,speeded_recognition,17,AC,blocked,2,correct,1559
11,1b,speeded_recognition,18,BC,intermixed,6,correct,1385
11,1b,speeded_recognition,19,BC,blocked,2,correct,1106
11,1b,speeded_recognition,20,foil,blocked,N/A,correct,1974
11,1b,speeded_recognition,21,BC,intermixed,5,correct,1588
11,1b,speeded_recognition,22,BC,blocked,1,correct,1048
11,1b,speeded_recognition,23,AB,intermixed,6,correct,1130
11,1b,speeded_recognition,24,foil,intermixed,N/A,correct,1723
11,1b,speeded_recognition,25,AC,intermixed,6,correct,1525
11,1b,speeded_recognition,26,foil,blocked,N/A,correct,1465
11,1b,speeded_recognition,27,BC,intermixed,4,correct,1589
11,1b,speeded_recognition,28,foil,blocked,N/A,correct,1394
11,1b,speeded_recognition,29,AC,blocked,3,correct,1531
11,1b,speeded_recognition,30,AC,intermixed,6,correct,1202
11,1b,speeded_recognition,31,AB,blocked,3,correct,997
11,1b,speeded_recognition,32,foil,intermixed,N/A,correct,1981
11,1b,speeded_recognition,33,AB,intermixed,4,correct,1286
11,1b,speeded_recognition,34,BC,blocked,2,correct,932
11,1b,speeded_recognition,35,AB,intermixed,5,correct,1119
11,1b,speeded_recognition,36,BC,blocked,3,correct,1165
11,1b,speeded_recognition,37,foil,blocked,N/A,correct,1124
11,1b,speeded_recognition,38,AC,blocked,1,correct,1128
11,1b,speeded_recognition,39,AC,intermixed,4,correct,2018
11,1b,speeded_recognition,40,foil,blocked,N/A,correct,1012
11,1b,speeded_recognition,41,AB,blocked,1,correct,1802
11,1b,speeded_recognition,42,BC,intermixed,5,correct,1105
11,1b,speeded_recognition,43,foil,intermixed,N/A,correct,1332
11,1b,speeded_recognition,44,AB,blocked,2,correct,1143
11,1b,speeded_recognition,45,BC,intermixed,6,correct,1157
11,1b,speeded_recognition,46,AC,blocked,1,correct,1559
11,1b,speeded_recognition,47,AB,intermixed,6,correct,1251
11,1b,speeded_recognition,48,BC,blocked,3,correct,1080
11,1b,explicit_inference,1,AC,blocked,1,correct,4726
11,1b,explicit_inference,2,AC,intermixed,4,correct,3514
11,1b,explicit_inference,3,AC,blocked,2,correct,2897
11,1b,explicit_inference,4,AC,intermixed,5,correct,2438
11,1b,explicit_inference,5,AC,intermixed,6,correct,2240
11,1b,explicit_inference,6,AC,blocked,3,correct,3200
11,1b,explicit_inference,7,AC,blocked,1,correct,4583
11,1b,explicit_inference,8,AC,intermixed,4,correct,3490
11,1b,explicit_inference,9,AC,blocked,2,correct,2537
11,1b,explicit_inference,10,AC,intermixed,5,correct,2289
11,1b,explicit_inference,11,AC,blocked,3,correct,3006
11,1b,explicit_inference,12,AC,intermixed,6,correct,2285
12,1b,speeded_recognition,1,BC,blocked,1,incorrect,948
12,1b,speeded_recognition,2,BC,intermixed,4,correct,1176
12,1b,speeded_recognition,3,foil,blocked,N/A,correct,1159
12,1b,speeded_recognition,4,foil,intermixed,N/A,correct,1039
12,1b,speeded_recognition,5,AB,intermixed,4,correct,1376
12,1b,speeded_recognition,6,foil,blocked,N/A,correct,1372
12,1b,speeded_recognition,7,AB,intermixed,6,correct,1244
12,1b,speeded_recognition,8,AB,blocked,1,correct,973
12,1b,speeded_recognition,9,BC,intermixed,5,correct,1244
12,1b,speeded_recognition,10,BC,blocked,2,correct,997
12,1b,speeded_recognition,11,foil,intermixed,N/A,correct,1108
12,1b,speeded_recognition,12,AC,intermixed,4,correct,1851
12,1b,speeded_recognition,13,AC,blocked,3,correct,820
12,1b,speeded_recognition,14,foil,intermixed,N/A,correct,961
12,1b,speeded_recognition,15,AB,intermixed,5,correct,933
12,1b,speeded_recognition,16,foil,intermixed,N/A,correct,1211
12,1b,speeded_recognition,17,AB,blocked,2,incorrect,864
12,1b,speeded_recognition,18,foil,blocked,N/A,correct,1908
12,1b,speeded_recognition,19,AB,intermixed,4,correct,1168
12,1b,speeded_recognition,20,AC,blocked,2,correct,1197
12,1b,speeded_recognition,21,BC,intermixed,5,correct,1132
12,1b,speeded_recognition,22,AC,blocked,1,correct,1597
12,1b,speeded_recognition,23,AC,intermixed,5,correct,1886
12,1b,speeded_recognition,24,AB,blocked,2,correct,955
12,1b,speeded_recognition,25,foil,blocked,N/A,correct,1013
12,1b,speeded_recognition,26,AC,intermixed,4,correct,1536
12,1b,speeded_recognition,27,BC,blocked,1,correct,1612
12,1b,speeded_recognition,28,AB,intermixed,6,correct,1876
12,1b,speeded_recognition,29,AC,blocked,3,correct,1292
12,1b,speeded_recognition,30,AC,intermixed,6,correct,1950
12,1b,speeded_recognition,31,AC,blocked,1,correct,1397
12,1b,speeded_recognition,32,AC,intermixed,6,correct,1239
12,1b,speeded_recognition,33,AB,blocked,3,correct,1279
12,1b,speeded_recognition,34,AC,intermixed,5,correct,942
12,1b,speeded_recognition,35,foil,blocked,N/A,correct,936
12,1b,speeded_recognition,36,BC,blocked,3,correct,917
12,1b,speeded_recognition,37,AB,intermixed,5,correct,892
12,1b,speeded_recognition,38,BC,blocked,2,correct,876
12,1b,speeded_recognition,39,foil,blocked,N/A,correct,1182
12,1b,speeded_recognition,40,BC,intermixed,4,correct,805
12,1b,speeded_recognition,41,AC,blocked,2,correct,1060
12,1b,speeded_recognition,42,foil,intermixed,N/A,correct,1165
12,1b,speeded_recognition,43,BC,blocked,3,correct,1160
12,1b,speeded_recognition,44,BC,intermixed,6,correct,1728
12,1b,speeded_recognition,45,AB,blocked,1,correct,1132
12,1b,speeded_recognition,46,BC,intermixed,6,correct,884
12,1b,speeded_recognition,47,foil,intermixed,N/A,correct,1286
12,1b,speeded_recognition,48,AB,blocked,3,correct,1283
12,1b,explicit_inference,1,AC,blocked,2,correct,7894
12,1b,explicit_inference,2,AC,blocked,3,correct,2615
12,1b,explicit_inference,3,AC,intermixed,5,correct,1623
12,1b,explicit_inference,4,AC,blocked,1,correct,1800
12,1b,explicit_inference,5,AC,intermixed,4,correct,2470
12,1b,explicit_inference,6,AC,intermixed,6,correct,1415
12,1b,explicit_inference,7,AC,blocked,1,correct,1359
12,1b,explicit_inference,8,AC,intermixed,5,correct,1640
12,1b,explicit_inference,9,AC,blocked,2,correct,1559
12,1b,explicit_inference,10,AC,blocked,3,correct,2735
12,1b,explicit_inference,11,AC,intermixed,4,correct,2311
12,1b,explicit_inference,12,AC,intermixed,6,correct,1447
13,1b,speeded_recognition,1,BC,blocked,3,correct,1754
13,1b,speeded_recognition,2,foil,blocked,N/A,correct,1469
13,1b,speeded_recognition,3,AC,intermixed,6,correct,1816
13,1b,speeded_recognition,4,AB,blocked,3,correct,1561
13,1b,speeded_recognition,5,AB,intermixed,6,correct,1064
13,1b,speeded_recognition,6,AB,blocked,2,correct,1265
13,1b,speeded_recognition,7,foil,blocked,N/A,correct,1341
13,1b,speeded_recognition,8,AB,intermixed,4,correct,1230
13,1b,speeded_recognition,9,BC,blocked,2,correct,1298
13,1b,speeded_recognition,10,AB,intermixed,5,correct,1158
13,1b,speeded_recognition,11,foil,intermixed,N/A,correct,1673
13,1b,speeded_recognition,12,AC,blocked,3,correct,1599
13,1b,speeded_recognition,13,AB,intermixed,5,correct,777
13,1b,speeded_recognition,14,BC,blocked,2,incorrect,1643
13,1b,speeded_recognition,15,AC,intermixed,5,correct,1460
13,1b,speeded_recognition,16,foil,intermixed,N/A,incorrect,1591
13,1b,speeded_recognition,17,AB,blocked,1,correct,1737
13,1b,speeded_recognition,18,AC,intermixed,6,correct,1526
13,1b,speeded_recognition,19,AC,blocked,1,incorrect,1267
13,1b,speeded_recognition,20,foil,intermixed,N/A,correct,1393
13,1b,speeded_recognition,21,AB,blocked,3,correct,1165
13,1b,speeded_recognition,22,BC,intermixed,4,incorrect,1659
13,1b,speeded_recognition,23,foil,intermixed,N/A,correct,1592
13,1b,speeded_recognition,24,BC,blocked,3,correct,1328
13,1b,speeded_recognition,25,BC,intermixed,4,incorrect,2074
13,1b,speeded_recognition,26,foil,intermixed,N/A,correct,1963
13,1b,speeded_recognition,27,AC,blocked,2,incorrect,1120
13,1b,speeded_recognition,28,AC,intermixed,4,correct,1490
13,1b,speeded_recognition,29,foil,blocked,N/A,incorrect,1551
13,1b,speeded_recognition,30,AB,blocked,1,correct,1365
13,1b,speeded_recognition,31,foil,blocked,N/A,correct,1661
13,1b,speeded_recognition,32,BC,intermixed,6,correct,1052
13,1b,speeded_recognition,33,BC,blocked,1,correct,1206
13,1b,speeded_recognition,34,AC,intermixed,5,incorrect,1388
13,1b,speeded_recognition,35,BC,blocked,1,correct,1385
13,1b,speeded_recognition,36,BC,intermixed,6,correct,1051
13,1b,speeded_recognition,37,foil,blocked,N/A,correct,1760
13,1b,speeded_recognition,38,BC,intermixed,5,correct,1980
13,1b,speeded_recognition,39,AC,blocked,2,incorrect,1608
13,1b,speeded_recognition,40,foil,intermixed,N/A,correct,1168
13,1b,speeded_recognition,41,AB,intermixed,4,correct,1243
13,1b,speeded_recognition,42,foil,blocked,N/A,correct,1677
13,1b,speeded_recognition,43,AB,blocked,2,correct,1071
13,1b,speeded_recognition,44,AB,intermixed,6,correct,1228
13,1b,speeded_recognition,45,AC,blocked,3,incorrect,1542
13,1b,speeded_recognition,46,AC,intermixed,4,correct,1803
13,1b,speeded_recognition,47,AC,blocked,1,correct,1094
13,1b,speeded_recognition,48,BC,intermixed,5,correct,877
13,1b,explicit_inference,1,AC,blocked,3,correct,3660
13,1b,explicit_inference,2,AC,intermixed,5,incorrect,4918
13,1b,explicit_inference,3,AC,intermixed,6,correct,2844
13,1b,explicit_inference,4,AC,blocked,2,correct,2542
13,1b,explicit_inference,5,AC,blocked,1,correct,3079
13,1b,explicit_inference,6,AC,intermixed,4,correct,3429
13,1b,explicit_inference,7,AC,blocked,1,correct,2190
13,1b,explicit_inference,8,AC,blocked,3,correct,2287
13,1b,explicit_inference,9,AC,blocked,2,correct,2254
13,1b,explicit_inference,10,AC,intermixed,6,correct,2982
13,1b,explicit_inference,11,AC,intermixed,4,correct,4334
13,1b,explicit_inference,12,AC,intermixed,5,correct,3822
14,1b,speeded_recognition,1,BC,intermixed,4,correct,1031
14,1b,speeded_recognition,2,foil,blocked,N/A,correct,1832
14,1b,speeded_recognition,3,foil,intermixed,N/A,correct,1171
14,1b,speeded_recognition,4,AC,blocked,3,correct,1349
14,1b,speeded_recognition,5,BC,intermixed,4,correct,885
14,1b,speeded_recognition,6,AC,blocked,2,correct,1180
14,1b,speeded_recognition,7,BC,intermixed,6,correct,919
14,1b,speeded_recognition,8,AC,blocked,3,correct,970
14,1b,speeded_recognition,9,foil,intermixed,N/A,correct,981
14,1b,speeded_recognition,10,BC,blocked,3,correct,1294
14,1b,speeded_recognition,11,BC,intermixed,5,correct,1291
14,1b,speeded_recognition,12,foil,blocked,N/A,correct,1726
14,1b,speeded_recognition,13,BC,intermixed,6,correct,929
14,1b,speeded_recognition,14,AB,blocked,2,incorrect,1231
14,1b,speeded_recognition,15,AB,intermixed,5,correct,1234
14,1b,speeded_recognition,16,BC,blocked,2,correct,888
14,1b,speeded_recognition,17,foil,blocked,N/A,correct,962
14,1b,speeded_recognition,18,AB,intermixed,4,correct,849
14,1b,speeded_recognition,19,AB,blocked,1,incorrect,1281
14,1b,speeded_recognition,20,AC,intermixed,6,correct,1124
14,1b,speeded_recognition,21,AB,blocked,3,correct,883
14,1b,speeded_recognition,22,AC,intermixed,6,correct,1355
14,1b,speeded_recognition,23,AC,blocked,1,incorrect,777
14,1b,speeded_recognition,24,foil,blocked,N/A,correct,1070
14,1b,speeded_recognition,25,AB,intermixed,6,incorrect,1189
14,1b,speeded_recognition,26,AB,blocked,2,correct,1084
14,1b,speeded_recognition,27,AC,intermixed,5,correct,1093
14,1b,speeded_recognition,28,AC,blocked,1,correct,1065
14,1b,speeded_recognition,29,foil,intermixed,N/A,incorrect,1366
14,1b,speeded_recognition,30,AB,intermixed,4,correct,915
14,1b,speeded_recognition,31,BC,blocked,3,incorrect,1188
14,1b,speeded_recognition,32,foil,blocked,N/A,correct,1229
14,1b,speeded_recognition,33,BC,intermixed,5,correct,988
14,1b,speeded_recognition,34,BC,blocked,1,correct,909
14,1b,speeded_recognition,35,foil,intermixed,N/A,correct,1190
14,1b,speeded_recognition,36,AC,intermixed,4,incorrect,1183
14,1b,speeded_recognition,37,AC,blocked,2,correct,1061
14,1b,speeded_recognition,38,AB,intermixed,6,correct,1174
14,1b,speeded_recognition,39,foil,blocked,N/A,correct,1115
14,1b,speeded_recognition,40,AB,intermixed,5,correct,1075
14,1b,speeded_recognition,41,BC,blocked,1,correct,1025
14,1b,speeded_recognition,42,foil,intermixed,N/A,correct,1376
14,1b,speeded_recognition,43,AB,blocked,1,correct,1244
14,1b,speeded_recognition,44,AC,intermixed,4,incorrect,1117
14,1b,speeded_recognition,45,AB,blocked,3,correct,1016
14,1b,speeded_recognition,46,foil,intermixed,N/A,correct,1236
14,1b,speeded_recognition,47,AC,intermixed,5,correct,1095
14,1b,speeded_recognition,48,BC,blocked,2,correct,1087
14,1b,explicit_inference,1,AC,intermixed,6,correct,4826
14,1b,explicit_inference,2,AC,intermixed,4,correct,2061
14,1b,explicit_inference,3,AC,blocked,1,correct,2915
14,1b,explicit_inference,4,AC,blocked,2,correct,1774
14,1b,explicit_inference,5,AC,blocked,3,correct,2847
14,1b,explicit_inference,6,AC,intermixed,5,incorrect,3138
14,1b,explicit_inference,7,AC,intermixed,6,correct,2777
14,1b,explicit_inference,8,AC,blocked,3,incorrect,1633
14,1b,explicit_inference,9,AC,intermixed,5,correct,1740
14,1b,explicit_inference,10,AC,blocked,2,incorrect,2588
14,1b,explicit_inference,11,AC,blocked,1,correct,1889
14,1b,explicit_inference,12,AC,intermixed,4,correct,1739
15,1b,speeded_recognition,1,AB,intermixed,6,correct,1789
15,1b,speeded_recognition,2,BC,blocked,1,correct,1303
15,1b,speeded_recognition,3,AB,intermixed,5,correct,1447
15,1b,speeded_recognition,4,foil,blocked,N/A,correct,1270
15,1b,speeded_recognition,5,AC,intermixed,6,correct,1733
15,1b,speeded_recognition,6,AC,blocked,2,correct,1271
15,1b,speeded_recognition,7,BC,intermixed,6,correct,1727
15,1b,speeded_recognition,8,AC,blocked,3,correct,1303
15,1b,speeded_recognition,9,AB,intermixed,6,correct,1791
15,1b,speeded_recognition,10,AB,blocked,3,correct,1984
15,1b,speeded_recognition,11,foil,intermixed,N/A,correct,1804
15,1b,speeded_recognition,12,AB,intermixed,5,correct,1247
15,1b,speeded_recognition,13,AB,blocked,2,correct,1990
15,1b,speeded_recognition,14,foil,blocked,N/A,correct,1207
15,1b,speeded_recognition,15,BC,intermixed,5,correct,1397
15,1b,speeded_recognition,16,foil,blocked,N/A,correct,1248
15,1b,speeded_recognition,17,AC,intermixed,5,correct,2384
15,1b,speeded_recognition,18,BC,blocked,3,correct,1337
15,1b,speeded_recognition,19,foil,blocked,N/A,correct,1312
15,1b,speeded_recognition,20,AC,intermixed,6,correct,1156
15,1b,speeded_recognition,21,AB,blocked,1,correct,1738
15,1b,speeded_recognition,22,foil,blocked,N/A,correct,1694
15,1b,speeded_recognition,23,AC,intermixed,4,correct,1446
15,1b,speeded_recognition,24,AC,blocked,1,correct,1799
15,1b,speeded_recognition,25,AB,intermixed,4,correct,1326
15,1b,speeded_recognition,26,foil,intermixed,N/A,correct,1247
15,1b,speeded_recognition,27,BC,intermixed,5,correct,1127
15,1b,speeded_recognition,28,BC,blocked,2,correct,1134
15,1b,speeded_recognition,29,AC,intermixed,5,correct,1533
15,1b,speeded_recognition,30,AC,blocked,3,correct,1634
15,1b,speeded_recognition,31,AC,intermixed,4,incorrect,1317
15,1b,speeded_recognition,32,AC,blocked,1,incorrect,1143
15,1b,speeded_recognition,33,foil,intermixed,N/A,correct,1216
15,1b,speeded_recognition,34,AC,blocked,2,correct,1141
15,1b,speeded_recognition,35,BC,intermixed,4,correct,919
15,1b,speeded_recognition,36,AB,blocked,3,correct,1360
15,1b,speeded_recognition,37,foil,blocked,N/A,correct,1181
15,1b,speeded_recognition,38,BC,blocked,3,correct,1081
15,1b,speeded_recognition,39,BC,intermixed,4,correct,951
15,1b,speeded_recognition,40,foil,intermixed,N/A,correct,1327
15,1b,speeded_recognition,41,BC,blocked,1,correct,963
15,1b,speeded_recognition,42,foil,intermixed,N/A,correct,911
15,1b,speeded_recognition,43,AB,blocked,1,correct,1117
15,1b,speeded_recognition,44,BC,intermixed,6,correct,1136
15,1b,speeded_recognition,45,AB,blocked,2,correct,1188
15,1b,speeded_recognition,46,AB,intermixed,4,correct,1085
15,1b,speeded_recognition,47,foil,intermixed,N/A,correct,1096
15,1b,speeded_recognition,48,BC,blocked,2,correct,1392
15,1b,explicit_inference,1,AC,blocked,2,correct,3856
15,1b,explicit_inference,2,AC,blocked,3,correct,3294
15,1b,explicit_inference,3,AC,blocked,1,correct,2237
15,1b,explicit_inference,4,AC,intermixed,4,correct,2879
15,1b,explicit_inference,5,AC,intermixed,6,correct,2694
15,1b,explicit_inference,6,AC,intermixed,5,correct,1838
15,1b,explicit_inference,7,AC,intermixed,5,correct,1702
15,1b,explicit_inference,8,AC,intermixed,6,correct,1614
15,1b,explicit_inference,9,AC,blocked,2,correct,1574
15,1b,explicit_inference,10,AC,intermixed,4,correct,1990
15,1b,explicit_inference,11,AC,blocked,1,correct,1453
15,1b,explicit_inference,12,AC,blocked,3,correct,2110
16,1b,speeded_recognition,1,AB,blocked,3,correct,1309
16,1b,speeded_recognition,2,BC,intermixed,5,correct,1020
16,1b,speeded_recognition,3,foil,blocked,N/A,correct,792
16,1b,speeded_recognition,4,BC,intermixed,4,correct,847
16,1b,speeded_recognition,5,AC,blocked,2,correct,1004
16,1b,speeded_recognition,6,AB,intermixed,6,correct,770
16,1b,speeded_recognition,7,foil,blocked,N/A,correct,1281
16,1b,speeded_recognition,8,AB,intermixed,4,correct,705
16,1b,speeded_recognition,9,BC,blocked,1,correct,875
16,1b,speeded_recognition,10,AB,intermixed,5,correct,1364
16,1b,speeded_recognition,11,foil,blocked,N/A,correct,1131
16,1b,speeded_recognition,12,foil,intermixed,N/A,correct,881
16,1b,speeded_recognition,13,AB,blocked,1,correct,1653
16,1b,speeded_recognition,14,AC,intermixed,4,correct,1237
16,1b,speeded_recognition,15,AC,blocked,1,correct,909
16,1b,speeded_recognition,16,BC,intermixed,6,correct,857
16,1b,speeded_recognition,17,foil,intermixed,N/A,correct,807
16,1b,speeded_recognition,18,AB,blocked,2,correct,893
16,1b,speeded_recognition,19,AC,intermixed,5,correct,814
16,1b,speeded_recognition,20,foil,blocked,N/A,correct,1275
16,1b,speeded_recognition,21,foil,blocked,N/A,correct,1216
16,1b,speeded_recognition,22,AB,intermixed,5,correct,928
16,1b,speeded_recognition,23,foil,blocked,N/A,correct,990
16,1b,speeded_recognition,24,AB,blocked,2,correct,1257
16,1b,speeded_recognition,25,BC,intermixed,5,correct,1036
16,1b,speeded_recognition,26,BC,blocked,3,correct,1067
16,1b,speeded_recognition,27,AB,intermixed,4,correct,790
16,1b,speeded_recognition,28,AC,blocked,3,correct,959
16,1b,speeded_recognition,29,foil,intermixed,N/A,correct,1109
16,1b,speeded_recognition,30,BC,blocked,1,correct,1082
16,1b,speeded_recognition,31,foil,intermixed,N/A,correct,874
16,1b,speeded_recognition,32,BC,blocked,2,correct,2034
16,1b,speeded_recognition,33,AC,intermixed,5,correct,1082
16,1b,speeded_recognition,34,AC,blocked,3,correct,1629
16,1b,speeded_recognition,35,BC,intermixed,4,correct,936
16,1b,speeded_recognition,36,BC,blocked,3,correct,961
16,1b,speeded_recognition,37,BC,intermixed,6,correct,1157
16,1b,speeded_recognition,38,AC,blocked,1,correct,1059
16,1b,speeded_recognition,39,AC,intermixed,4,correct,1357
16,1b,speeded_recognition,40,AB,blocked,3,correct,730
16,1b,speeded_recognition,41,AB,intermixed,6,correct,747
16,1b,speeded_recognition,42,AC,blocked,2,correct,990
16,1b,speeded_recognition,43,foil,intermixed,N/A,correct,1072
16,1b,speeded_recognition,44,AC,intermixed,6,correct,872
16,1b,speeded_recognition,45,AB,blocked,1,incorrect,790
16,1b,speeded_recognition,46,AC,intermixed,6,correct,1218
16,1b,speeded_recognition,47,foil,intermixed,N/A,correct,848
16,1b,speeded_recognition,48,BC,blocked,2,correct,945
16,1b,explicit_inference,1,AC,intermixed,5,correct,5703
16,1b,explicit_inference,2,AC,blocked,3,correct,1337
16,1b,explicit_inference,3,AC,intermixed,6,incorrect,2657
16,1b,explicit_inference,4,AC,intermixed,4,correct,1931
16,1b,explicit_inference,5,AC,blocked,1,correct,1273
16,1b,explicit_inference,6,AC,blocked,2,correct,1667
16,1b,explicit_inference,7,AC,blocked,1,correct,1666
16,1b,explicit_inference,8,AC,intermixed,5,correct,1388
16,1b,explicit_inference,9,AC,blocked,2,incorrect,1598
16,1b,explicit_inference,10,AC,blocked,3,correct,1154
16,1b,explicit_inference,11,AC,intermixed,6,incorrect,1092
16,1b,explicit_inference,12,AC,intermixed,4,correct,1996
17,1b,speeded_recognition,1,foil,blocked,N/A,correct,1557
17,1b,speeded_recognition,2,foil,intermixed,N/A,correct,1291
17,1b,speeded_recognition,3,AC,blocked,2,correct,1306
17,1b,speeded_recognition,4,foil,intermixed,N/A,correct,1480
17,1b,speeded_recognition,5,BC,intermixed,6,correct,1695
17,1b,speeded_recognition,6,AB,blocked,2,correct,1575
17,1b,speeded_recognition,7,foil,intermixed,N/A,correct,1312
17,1b,speeded_recognition,8,AC,intermixed,4,incorrect,1290
17,1b,speeded_recognition,9,BC,blocked,3,correct,1155
17,1b,speeded_recognition,10,AC,intermixed,4,incorrect,1072
17,1b,speeded_recognition,11,BC,blocked,1,correct,1040
17,1b,speeded_recognition,12,AB,intermixed,6,correct,1198
17,1b,speeded_recognition,13,foil,intermixed,N/A,correct,1697
17,1b,speeded_recognition,14,BC,blocked,1,correct,1139
17,1b,speeded_recognition,15,AC,intermixed,5,incorrect,1858
17,1b,speeded_recognition,16,AB,blocked,3,correct,1822
17,1b,speeded_recognition,17,BC,intermixed,4,correct,1793
17,1b,speeded_recognition,18,AC,blocked,1,correct,1929
17,1b,speeded_recognition,19,AC,intermixed,5,correct,2303
17,1b,speeded_recognition,20,foil,blocked,N/A,incorrect,1201
17,1b,speeded_recognition,21,AB,intermixed,5,correct,1248
17,1b,speeded_recognition,22,AB,blocked,3,correct,953
17,1b,speeded_recognition,23,BC,intermixed,4,correct,1820
17,1b,speeded_recognition,24,AC,blocked,2,correct,1457
17,1b,speeded_recognition,25,AC,intermixed,6,correct,1830
17,1b,speeded_recognition,26,AB,blocked,1,incorrect,1541
17,1b,speeded_recognition,27,BC,intermixed,5,correct,1735
17,1b,speeded_recognition,28,foil,intermixed,N/A,correct,1371
17,1b,speeded_recognition,29,foil,blocked,N/A,correct,1501
17,1b,speeded_recognition,30,AB,blocked,1,incorrect,2599
17,1b,speeded_recognition,31,AB,intermixed,4,correct,891
17,1b,speeded_recognition,32,AB,blocked,2,correct,1287
17,1b,speeded_recognition,33,foil,intermixed,N/A,correct,1346
17,1b,speeded_recognition,34,foil,blocked,N/A,incorrect,1666
17,1b,speeded_recognition,35,AC,blocked,1,correct,1667
17,1b,speeded_recognition,36,BC,intermixed,5,correct,1249
17,1b,speeded_recognition,37,foil,blocked,N/A,correct,1409
17,1b,speeded_recognition,38,AC,intermixed,6,correct,1582
17,1b,speeded_recognition,39,AC,blocked,3,correct,1897
17,1b,speeded_recognition,40,AB,intermixed,5,correct,1244
17,1b,speeded_recognition,41,BC,blocked,2,correct,1586
17,1b,speeded_recognition,42,AB,intermixed,4,correct,1155
17,1b,speeded_recognition,43,foil,blocked,N/A,correct,1459
17,1b,speeded_recognition,44,BC,blocked,2,correct,1968
17,1b,speeded_recognition,45,BC,intermixed,6,correct,1047
17,1b,speeded_recognition,46,BC,blocked,3,correct,1155
17,1b,speeded_recognition,47,AB,intermixed,6,correct,878
17,1b,speeded_recognition,48,AC,blocked,3,correct,1367
17,1b,explicit_inference,1,AC,blocked,1,correct,7054
17,1b,explicit_inference,2,AC,blocked,2,correct,3952
17,1b,explicit_inference,3,AC,intermixed,4,correct,2784
17,1b,explicit_inference,4,AC,intermixed,6,correct,2001
17,1b,explicit_inference,5,AC,intermixed,5,correct,2889
17,1b,explicit_inference,6,AC,blocked,3,correct,2029
17,1b,explicit_inference,7,AC,blocked,1,correct,3067
17,1b,explicit_inference,8,AC,intermixed,6,correct,2060
17,1b,explicit_inference,9,AC,blocked,2,correct,1946
17,1b,explicit_inference,10,AC,intermixed,4,correct,2012
17,1b,explicit_inference,11,AC,intermixed,5,correct,2546
17,1b,explicit_inference,12,AC,blocked,3,incorrect,2932
18,1b,speeded_recognition,1,BC,blocked,2,correct,1328
18,1b,speeded_recognition,2,AC,intermixed,4,correct,1537
18,1b,speeded_recognition,3,foil,intermixed,N/A,correct,1882
18,1b,speeded_recognition,4,BC,blocked,2,correct,1102
18,1b,speeded_recognition,5,AB,intermixed,6,correct,1541
18,1b,speeded_recognition,6,AC,blocked,3,correct,1264
18,1b,speeded_recognition,7,BC,intermixed,5,correct,1533
18,1b,speeded_recognition,8,BC,blocked,1,correct,1475
18,1b,speeded_recognition,9,AC,intermixed,5,correct,1388
18,1b,speeded_recognition,10,foil,blocked,N/A,correct,1330
18,1b,speeded_recognition,11,BC,intermixed,4,correct,1416
18,1b,speeded_recognition,12,foil,blocked,N/A,correct,1261
18,1b,speeded_recognition,13,AB,intermixed,5,correct,1173
18,1b,speeded_recognition,14,AB,blocked,2,correct,2358
18,1b,speeded_recognition,15,BC,intermixed,4,correct,1410
18,1b,speeded_recognition,16,foil,blocked,N/A,correct,1070
18,1b,speeded_recognition,17,BC,blocked,1,correct,1378
18,1b,speeded_recognition,18,foil,intermixed,N/A,correct,1474
18,1b,speeded_recognition,19,AC,blocked,1,correct,1477
18,1b,speeded_recognition,20,foil,intermixed,N/A,correct,1334
18,1b,speeded_recognition,21,foil,intermixed,N/A,correct,1293
18,1b,speeded_recognition,22,AB,blocked,3,incorrect,3433
18,1b,speeded_recognition,23,AC,intermixed,6,correct,2695
18,1b,speeded_recognition,24,AB,blocked,3,correct,1273
18,1b,speeded_recognition,25,AB,intermixed,4,correct,1416
18,1b,speeded_recognition,26,AB,blocked,2,correct,1024
18,1b,speeded_recognition,27,foil,blocked,N/A,correct,1743
18,1b,speeded_recognition,28,AB,intermixed,5,correct,1177
18,1b,speeded_recognition,29,AB,blocked,1,correct,1496
18,1b,speeded_recognition,30,BC,intermixed,6,correct,1744
18,1b,speeded_recognition,31,BC,blocked,3,correct,1281
18,1b,speeded_recognition,32,AC,intermixed,4,correct,1205
18,1b,speeded_recognition,33,foil,intermixed,N/A,correct,1304
18,1b,speeded_recognition,34,AC,blocked,2,correct,1995
18,1b,speeded_recognition,35,BC,intermixed,5,correct,2280
18,1b,speeded_recognition,36,AC,blocked,2,correct,2067
18,1b,speeded_recognition,37,BC,intermixed,6,correct,1042
18,1b,speeded_recognition,38,BC,blocked,3,correct,1076
18,1b,speeded_recognition,39,AB,intermixed,6,correct,1213
18,1b,speeded_recognition,40,AC,blocked,1,correct,1874
18,1b,speeded_recognition,41,AC,intermixed,6,correct,1666
18,1b,speeded_recognition,42,foil,blocked,N/A,correct,1172
18,1b,speeded_recognition,43,AB,intermixed,4,correct,1036
18,1b,speeded_recognition,44,foil,blocked,N/A,correct,1836
18,1b,speeded_recognition,45,AB,blocked,1,correct,1221
18,1b,speeded_recognition,46,foil,intermixed,N/A,correct,1747
18,1b,speeded_recognition,47,AC,blocked,3,correct,1320
18,1b,speeded_recognition,48,AC,intermixed,5,correct,1355
18,1b,explicit_inference,1,AC,intermixed,6,correct,4005
18,1b,explicit_inference,2,AC,blocked,2,correct,3824
18,1b,explicit_inference,3,AC,blocked,1,correct,3004
18,1b,explicit_inference,4,AC,intermixed,4,correct,4120
18,1b,explicit_inference,5,AC,intermixed,5,correct,3591
18,1b,explicit_inference,6,AC,blocked,3,incorrect,3532
18,1b,explicit_inference,7,AC,blocked,2,correct,4820
18,1b,explicit_inference,8,AC,intermixed,4,correct,3501
18,1b,explicit_inference,9,AC,intermixed,5,correct,2722
18,1b,explicit_inference,10,AC,intermixed,6,correct,3772
18,1b,explicit_inference,11,AC,blocked,1,correct,3195
18,1b,explicit_inference,12,AC,blocked,3,correct,3307
19,1b,speeded_recognition,1,BC,intermixed,5,correct,1374
19,1b,speeded_recognition,2,BC,blocked,3,correct,1215
19,1b,speeded_recognition,3,AB,intermixed,4,correct,1104
19,1b,speeded_recognition,4,foil,intermixed,N/A,correct,1047
19,1b,speeded_recognition,5,AC,blocked,2,correct,1271
19,1b,speeded_recognition,6,AC,intermixed,4,correct,1047
19,1b,speeded_recognition,7,foil,blocked,N/A,correct,1135
19,1b,speeded_recognition,8,AC,intermixed,4,correct,1192
19,1b,speeded_recognition,9,BC,blocked,3,correct,1048
19,1b,speeded_recognition,10,foil,intermixed,N/A,correct,1135
19,1b,speeded_recognition,11,AB,intermixed,5,correct,910
19,1b,speeded_recognition,12,foil,blocked,N/A,correct,1175
19,1b,speeded_recognition,13,AB,blocked,2,correct,1183
19,1b,speeded_recognition,14,AC,intermixed,5,correct,1007
19,1b,speeded_recognition,15,foil,blocked,N/A,correct,1168
19,1b,speeded_recognition,16,BC,blocked,2,incorrect,1239
19,1b,speeded_recognition,17,BC,intermixed,6,correct,1142
19,1b,speeded_recognition,18,AC,blocked,1,correct,1271
19,1b,speeded_recognition,19,AB,intermixed,6,correct,1519
19,1b,speeded_recognition,20,BC,blocked,1,correct,1375
19,1b,speeded_recognition,21,foil,blocked,N/A,correct,1680
19,1b,speeded_recognition,22,AB,blocked,1,correct,1150
19,1b,speeded_recognition,23,foil,blocked,N/A,correct,959
19,1b,speeded_recognition,24,BC,intermixed,4,correct,983
19,1b,speeded_recognition,25,foil,intermixed,N/A,correct,998
19,1b,speeded_recognition,26,AC,blocked,2,incorrect,1278
19,1b,speeded_recognition,27,AC,intermixed,5,correct,1288
19,1b,speeded_recognition,28,foil,intermixed,N/A,correct,1183
19,1b,speeded_recognition,29,AC,blocked,1,incorrect,1136
19,1b,speeded_recognition,30,foil,intermixed,N/A,correct,1031
19,1b,speeded_recognition,31,AC,blocked,3,correct,1289
19,1b,speeded_recognition,32,AC,intermixed,6,correct,1335
19,1b,speeded_recognition,33,BC,blocked,1,correct,1295
19,1b,speeded_recognition,34,BC,intermixed,6,correct,1335
19,1b,speeded_recognition,35,BC,blocked,2,correct,1311
19,1b,speeded_recognition,36,foil,intermixed,N/A,correct,1327
19,1b,speeded_recognition,37,AB,blocked,3,correct,1392
19,1b,speeded_recognition,38,AB,intermixed,4,correct,1007
19,1b,speeded_recognition,39,foil,blocked,N/A,correct,1215
19,1b,speeded_recognition,40,AB,intermixed,6,correct,823
19,1b,speeded_recognition,41,AB,blocked,1,correct,1078
19,1b,speeded_recognition,42,AB,intermixed,5,correct,894
19,1b,speeded_recognition,43,AC,blocked,3,correct,1063
19,1b,speeded_recognition,44,BC,intermixed,4,correct,768
19,1b,speeded_recognition,45,AB,blocked,2,correct,960
19,1b,speeded_recognition,46,BC,intermixed,5,correct,744
19,1b,speeded_recognition,47,AB,blocked,3,correct,800
19,1b,speeded_recognition,48,AC,intermixed,6,correct,1480
19,1b,explicit_inference,1,AC,intermixed,4,correct,2983
19,1b,explicit_inference,2,AC,blocked,3,correct,2122
19,1b,explicit_inference,3,AC,intermixed,6,correct,1519
19,1b,explicit_inference,4,AC,blocked,1,correct,2279
19,1b,explicit_inference,5,AC,intermixed,5,correct,1179
19,1b,explicit_inference,6,AC,blocked,2,correct,1627
19,1b,explicit_inference,7,AC,intermixed,5,correct,1290
19,1b,explicit_inference,8,AC,blocked,3,correct,1612
19,1b,explicit_inference,9,AC,intermixed,4,correct,1792
19,1b,explicit_inference,10,AC,blocked,2,correct,1510
19,1b,explicit_inference,11,AC,intermixed,6,correct,1244
19,1b,explicit_inference,12,AC,blocked,1,correct,1981
20,1b,speeded_recognition,1,AC,intermixed,5,correct,1090
20,1b,speeded_recognition,2,AB,blocked,3,correct,820
20,1b,speeded_recognition,3,foil,intermixed,N/A,correct,973
20,1b,speeded_recognition,4,AB,intermixed,5,correct,1209
20,1b,speeded_recognition,5,foil,intermixed,N/A,correct,1184
20,1b,speeded_recognition,6,BC,blocked,1,correct,1117
20,1b,speeded_recognition,7,BC,intermixed,5,correct,1284
20,1b,speeded_recognition,8,foil,blocked,N/A,correct,1104
20,1b,speeded_recognition,9,BC,intermixed,4,correct,1073
20,1b,speeded_recognition,10,AC,blocked,1,correct,1084
20,1b,speeded_recognition,11,BC,intermixed,5,correct,808
20,1b,speeded_recognition,12,AB,blocked,3,correct,1075
20,1b,speeded_recognition,13,foil,blocked,N/A,correct,1473
20,1b,speeded_recognition,14,AB,blocked,1,correct,894
20,1b,speeded_recognition,15,foil,intermixed,N/A,correct,1268
20,1b,speeded_recognition,16,BC,blocked,3,correct,988
20,1b,speeded_recognition,17,AC,intermixed,6,correct,1299
20,1b,speeded_recognition,18,AC,blocked,3,correct,1172
20,1b,speeded_recognition,19,AC,intermixed,6,correct,1066
20,1b,speeded_recognition,20,AB,blocked,1,correct,763
20,1b,speeded_recognition,21,AB,intermixed,4,incorrect,1018
20,1b,speeded_recognition,22,foil,blocked,N/A,correct,1142
20,1b,speeded_recognition,23,foil,blocked,N/A,correct,1166
20,1b,speeded_recognition,24,AC,intermixed,4,correct,1452
20,1b,speeded_recognition,25,AB,blocked,2,correct,1157
20,1b,speeded_recognition,26,foil,intermixed,N/A,correct,1136
20,1b,speeded_recognition,27,AC,intermixed,4,correct,1212
20,1b,speeded_recognition,28,AC,blocked,3,correct,1117
20,1b,speeded_recognition,29,BC,intermixed,6,correct,1113
20,1b,speeded_recognition,30,BC,blocked,3,correct,947
20,1b,speeded_recognition,31,foil,intermixed,N/A,correct,1113
20,1b,speeded_recognition,32,AB,blocked,2,correct,837
20,1b,speeded_recognition,33,AB,intermixed,6,correct,1132
20,1b,speeded_recognition,34,foil,blocked,N/A,correct,1231
20,1b,speeded_recognition,35,BC,blocked,2,correct,967
20,1b,speeded_recognition,36,AB,intermixed,4,correct,968
20,1b,speeded_recognition,37,foil,intermixed,N/A,correct,1063
20,1b,speeded_recognition,38,AC,blocked,1,correct,938
20,1b,speeded_recognition,39,AC,intermixed,5,correct,1788
20,1b,speeded_recognition,40,foil,blocked,N/A,correct,1176
20,1b,speeded_recognition,41,AB,intermixed,6,correct,846
20,1b,speeded_recognition,42,AC,blocked,2,correct,1045
20,1b,speeded_recognition,43,BC,intermixed,6,correct,825
20,1b,speeded_recognition,44,AC,blocked,2,correct,949
20,1b,speeded_recognition,45,AB,intermixed,5,correct,1024
20,1b,speeded_recognition,46,BC,blocked,2,correct,919
20,1b,speeded_recognition,47,BC,intermixed,4,correct,1089
20,1b,speeded_recognition,48,BC,blocked,1,correct,1019
20,1b,explicit_inference,1,AC,blocked,1,correct,3536
20,1b,explicit_inference,2,AC,intermixed,4,correct,2152
20,1b,explicit_inference,3,AC,blocked,2,correct,2235
20,1b,explicit_inference,4,AC,blocked,3,correct,2022
20,1b,explicit_inference,5,AC,intermixed,6,correct,1657
20,1b,explicit_inference,6,AC,intermixed,5,correct,1775
20,1b,explicit_inference,7,AC,intermixed,5,correct,1818
20,1b,explicit_inference,8,AC,blocked,2,correct,2058
20,1b,explicit_inference,9,AC,intermixed,6,correct,1757
20,1b,explicit_inference,10,AC,blocked,3,correct,2573
20,1b,explicit_inference,11,AC,blocked,1,correct,1721
20,1b,explicit_inference,12,AC,intermixed,4,correct,2163
21,1b,speeded_recognition,1,AB,intermixed,6,correct,847
21,1b,speeded_recognition,2,AB,blocked,1,correct,2351
21,1b,speeded_recognition,3,foil,intermixed,N/A,correct,1415
21,1b,speeded_recognition,4,BC,intermixed,6,correct,2471
21,1b,speeded_recognition,5,AC,blocked,1,incorrect,2623
21,1b,speeded_recognition,6,foil,blocked,N/A,correct,1424
21,1b,speeded_recognition,7,AB,intermixed,6,correct,1528
21,1b,speeded_recognition,8,AB,blocked,2,correct,1295
21,1b,speeded_recognition,9,AB,intermixed,5,correct,2720
21,1b,speeded_recognition,10,foil,blocked,N/A,correct,2296
21,1b,speeded_recognition,11,AB,blocked,3,correct,1175
21,1b,speeded_recognition,12,AC,intermixed,6,correct,1856
21,1b,speeded_recognition,13,BC,blocked,3,incorrect,2007
21,1b,speeded_recognition,14,BC,intermixed,5,correct,1232
21,1b,speeded_recognition,15,AB,blocked,1,correct,2200
21,1b,speeded_recognition,16,foil,blocked,N/A,correct,2439
21,1b,speeded_recognition,17,BC,intermixed,4,correct,1935
21,1b,speeded_recognition,18,foil,blocked,N/A,correct,1656
21,1b,speeded_recognition,19,BC,intermixed,5,correct,1463
21,1b,speeded_recognition,20,AB,blocked,2,correct,1799
21,1b,speeded_recognition,21,AC,intermixed,5,correct,1136
21,1b,speeded_recognition,22,foil,intermixed,N/A,correct,1167
21,1b,speeded_recognition,23,AC,blocked,1,correct,2279
21,1b,speeded_recognition,24,BC,intermixed,4,correct,1295
21,1b,speeded_recognition,25,foil,blocked,N/A,correct,1176
21,1b,speeded_recognition,26,AC,blocked,2,incorrect,919
21,1b,speeded_recognition,27,foil,intermixed,N/A,correct,1848
21,1b,speeded_recognition,28,AB,intermixed,4,incorrect,2424
21,1b,speeded_recognition,29,foil,intermixed,N/A,correct,1407
21,1b,speeded_recognition,30,AC,blocked,2,correct,1175
21,1b,speeded_recognition,31,AC,intermixed,6,correct,1096
21,1b,speeded_recognition,32,BC,blocked,1,incorrect,1608
21,1b,speeded_recognition,33,AC,intermixed,4,correct,1559
21,1b,speeded_recognition,34,BC,blocked,3,incorrect,2879
21,1b,speeded_recognition,35,foil,intermixed,N/A,correct,1712
21,1b,speeded_recognition,36,BC,blocked,2,correct,2440
21,1b,speeded_recognition,37,AB,intermixed,5,incorrect,2639
21,1b,speeded_recognition,38,BC,blocked,2,correct,1319
21,1b,speeded_recognition,39,BC,intermixed,6,incorrect,1287
21,1b,speeded_recognition,40,AB,blocked,3,incorrect,1127
21,1b,speeded_recognition,41,AC,intermixed,4,correct,1399
21,1b,speeded_recognition,42,AC,blocked,3,correct,1063
21,1b,speeded_recognition,43,AC,intermixed,5,correct,1479
21,1b,speeded_recognition,44,foil,blocked,N/A,correct,1318
21,1b,speeded_recognition,45,BC,blocked,1,incorrect,1302
21,1b,speeded_recognition,46,AB,intermixed,4,incorrect,1471
21,1b,speeded_recognition,47,foil,intermixed,N/A,correct,1807
21,1b,speeded_recognition,48,AC,blocked,3,correct,1216
21,1b,explicit_inference,1,AC,intermixed,6,incorrect,4630
21,1b,explicit_inference,2,AC,blocked,3,incorrect,3321
21,1b,explicit_inference,3,AC,blocked,1,correct,4677
21,1b,explicit_inference,4,AC,intermixed,4,correct,3065
21,1b,explicit_inference,5,AC,intermixed,5,correct,3111
21,1b,explicit_inference,6,AC,blocked,2,correct,2302
21,1b,explicit_inference,7,AC,intermixed,4,correct,2502
21,1b,explicit_inference,8,AC,blocked,3,incorrect,3883
21,1b,explicit_inference,9,AC,intermixed,5,correct,2567
21,1b,explicit_inference,10,AC,blocked,2,correct,4702
21,1b,explicit_inference,11,AC,blocked,1,correct,2526
21,1b,explicit_inference,12,AC,intermixed,6,incorrect,3906
22,1b,speeded_recognition,1,AC,blocked,3,correct,1552
22,1b,speeded_recognition,2,AC,intermixed,4,correct,1165
22,1b,speeded_recognition,3,AC,blocked,1,incorrect,1187
22,1b,speeded_recognition,4,AB,intermixed,6,correct,1312
22,1b,speeded_recognition,5,AB,blocked,2,correct,1242
22,1b,speeded_recognition,6,foil,blocked,N/A,correct,1505
22,1b,speeded_recognition,7,AC,blocked,3,correct,1769
22,1b,speeded_recognition,8,BC,intermixed,6,correct,1194
22,1b,speeded_recognition,9,foil,blocked,N/A,correct,1250
22,1b,speeded_recognition,10,AB,intermixed,5,correct,1363
22,1b,speeded_recognition,11,foil,intermixed,N/A,correct,1751
22,1b,speeded_recognition,12,AC,blocked,1,incorrect,1242
22,1b,speeded_recognition,13,BC,intermixed,5,correct,1142
22,1b,speeded_recognition,14,foil,intermixed,N/A,correct,1490
22,1b,speeded_recognition,15,AB,intermixed,4,correct,1034
22,1b,speeded_recognition,16,foil,blocked,N/A,correct,1183
22,1b,speeded_recognition,17,AC,blocked,2,correct,1943
22,1b,speeded_recognition,18,foil,intermixed,N/A,incorrect,1680
22,1b,speeded_recognition,19,BC,blocked,1,correct,1403
22,1b,speeded_recognition,20,AB,intermixed,5,correct,1052
22,1b,speeded_recognition,21,AB,blocked,3,correct,2003
22,1b,speeded_recognition,22,AC,intermixed,6,correct,2080
22,1b,speeded_recognition,23,AB,blocked,1,correct,1911
22,1b,speeded_recognition,24,AB,intermixed,6,correct,1511
22,1b,speeded_recognition,25,foil,blocked,N/A,correct,1810
22,1b,speeded_recognition,26,BC,blocked,2,correct,1332
22,1b,speeded_recognition,27,BC,intermixed,4,correct,1123
22,1b,speeded_recognition,28,foil,blocked,N/A,correct,1118
22,1b,speeded_recognition,29,AB,blocked,2,correct,1464
22,1b,speeded_recognition,30,BC,intermixed,6,correct,1183
22,1b,speeded_recognition,31,BC,blocked,1,correct,936
22,1b,speeded_recognition,32,foil,intermixed,N/A,correct,1552
22,1b,speeded_recognition,33,BC,intermixed,5,correct,847
22,1b,speeded_recognition,34,AC,blocked,2,correct,1273
22,1b,speeded_recognition,35,foil,intermixed,N/A,correct,2352
22,1b,speeded_recognition,36,AC,intermixed,5,correct,1693
22,1b,speeded_recognition,37,BC,blocked,3,correct,1654
22,1b,speeded_recognition,38,AC,intermixed,6,correct,1934
22,1b,speeded_recognition,39,AB,blocked,1,correct,735
22,1b,speeded_recognition,40,foil,intermixed,N/A,incorrect,1034
22,1b,speeded_recognition,41,AC,intermixed,5,correct,1573
22,1b,speeded_recognition,42,BC,blocked,2,correct,955
22,1b,speeded_recognition,43,AC,intermixed,4,correct,1264
22,1b,speeded_recognition,44,AB,blocked,3,correct,1174
22,1b,speeded_recognition,45,BC,intermixed,4,correct,1323
22,1b,speeded_recognition,46,foil,blocked,N/A,correct,1204
22,1b,speeded_recognition,47,AB,intermixed,4,correct,1084
22,1b,speeded_recognition,48,BC,blocked,3,correct,905
22,1b,explicit_inference,1,AC,intermixed,4,correct,10697
22,1b,explicit_inference,2,AC,intermixed,5,incorrect,6401
22,1b,explicit_inference,3,AC,blocked,3,correct,3677
22,1b,explicit_inference,4,AC,intermixed,6,incorrect,2226
22,1b,explicit_inference,5,AC,blocked,1,correct,2068
22,1b,explicit_inference,6,AC,blocked,2,correct,2379
22,1b,explicit_inference,7,AC,blocked,1,correct,1582
22,1b,explicit_inference,8,AC,intermixed,5,incorrect,2325
22,1b,explicit_inference,9,AC,intermixed,6,incorrect,3177
22,1b,explicit_inference,10,AC,blocked,3,incorrect,1950
22,1b,explicit_inference,11,AC,blocked,2,correct,2593
22,1b,explicit_inference,12,AC,intermixed,4,correct,2106
23,1b,speeded_recognition,1,BC,blocked,2,correct,1143
23,1b,speeded_recognition,2,AB,intermixed,5,correct,1012
23,1b,speeded_recognition,3,AB,blocked,1,correct,1234
23,1b,speeded_recognition,4,AC,intermixed,6,incorrect,1669
23,1b,speeded_recognition,5,AB,blocked,2,correct,1322
23,1b,speeded_recognition,6,foil,intermixed,N/A,correct,1695
23,1b,speeded_recognition,7,BC,blocked,1,correct,1019
23,1b,speeded_recognition,8,BC,intermixed,5,correct,1072
23,1b,speeded_recognition,9,AB,blocked,3,correct,1078
23,1b,speeded_recognition,10,foil,intermixed,N/A,correct,1464
23,1b,speeded_recognition,11,AC,blocked,1,incorrect,1038
23,1b,speeded_recognition,12,foil,intermixed,N/A,correct,1198
23,1b,speeded_recognition,13,AC,blocked,3,incorrect,2531
23,1b,speeded_recognition,14,AC,intermixed,5,correct,1224
23,1b,speeded_recognition,15,AC,blocked,2,correct,1374
23,1b,speeded_recognition,16,foil,intermixed,N/A,correct,1243
23,1b,speeded_recognition,17,AC,intermixed,4,correct,1604
23,1b,speeded_recognition,18,BC,blocked,3,correct,1256
23,1b,speeded_recognition,19,AB,intermixed,4,correct,1208
23,1b,speeded_recognition,20,foil,intermixed,N/A,correct,1331
23,1b,speeded_recognition,21,AC,blocked,3,incorrect,1225
23,1b,speeded_recognition,22,foil,blocked,N/A,correct,1375
23,1b,speeded_recognition,23,AC,intermixed,5,correct,1171
23,1b,speeded_recognition,24,BC,blocked,1,correct,1023
23,1b,speeded_recognition,25,foil,blocked,N/A,correct,1456
23,1b,speeded_recognition,26,BC,intermixed,5,correct,936
23,1b,speeded_recognition,27,AC,blocked,2,correct,1317
23,1b,speeded_recognition,28,AB,intermixed,5,correct,1171
23,1b,speeded_recognition,29,foil,blocked,N/A,correct,1435
23,1b,speeded_recognition,30,BC,intermixed,6,correct,1219
23,1b,speeded_recognition,31,BC,blocked,3,correct,1203
23,1b,speeded_recognition,32,foil,intermixed,N/A,correct,1254
23,1b,speeded_recognition,33,AB,blocked,3,correct,1303
23,1b,speeded_recognition,34,BC,intermixed,4,correct,1848
23,1b,speeded_recognition,35,BC,blocked,2,correct,1211
23,1b,speeded_recognition,36,AB,intermixed,4,correct,1215
23,1b,speeded_recognition,37,foil,blocked,N/A,correct,1474
23,1b,speeded_recognition,38,BC,intermixed,4,correct,966
23,1b,speeded_recognition,39,AB,blocked,1,correct,1202
23,1b,speeded_recognition,40,AB,intermixed,6,correct,1466
23,1b,speeded_recognition,41,foil,blocked,N/A,correct,1953
23,1b,speeded_recognition,42,BC,intermixed,6,correct,2573
23,1b,speeded_recognition,43,AB,blocked,2,incorrect,2107
23,1b,speeded_recognition,44,AC,intermixed,4,correct,2483
23,1b,speeded_recognition,45,foil,blocked,N/A,correct,2496
23,1b,speeded_recognition,46,AB,intermixed,6,correct,1487
23,1b,speeded_recognition,47,AC,blocked,1,correct,2358
23,1b,speeded_recognition,48,AC,intermixed,6,incorrect,1503
23,1b,explicit_inference,1,AC,blocked,2,incorrect,11149
23,1b,explicit_inference,2,AC,intermixed,5,incorrect,4478
23,1b,explicit_inference,3,AC,blocked,1,correct,2809
23,1b,explicit_inference,4,AC,blocked,3,correct,2588
23,1b,explicit_inference,5,AC,intermixed,4,correct,6136
23,1b,explicit_inference,6,AC,intermixed,6,correct,3187
23,1b,explicit_inference,7,AC,blocked,2,correct,3945
23,1b,explicit_inference,8,AC,intermixed,6,correct,3039
23,1b,explicit_inference,9,AC,intermixed,4,correct,2578
23,1b,explicit_inference,10,AC,intermixed,5,correct,3393
23,1b,explicit_inference,11,AC,blocked,1,correct,2555
23,1b,explicit_inference,12,AC,blocked,3,correct,2660
24,1b,speeded_recognition,1,foil,blocked,N/A,incorrect,2214
24,1b,speeded_recognition,2,AB,intermixed,6,correct,1362
24,1b,speeded_recognition,3,foil,intermixed,N/A,correct,1403
24,1b,speeded_recognition,4,BC,blocked,2,correct,1527
24,1b,speeded_recognition,5,foil,blocked,N/A,correct,2356
24,1b,speeded_recognition,6,AC,intermixed,6,correct,1719
24,1b,speeded_recognition,7,BC,blocked,3,correct,1865
24,1b,speeded_recognition,8,AB,intermixed,5,correct,1638
24,1b,speeded_recognition,9,foil,blocked,N/A,correct,1640
24,1b,speeded_recognition,10,AB,blocked,2,correct,2523
24,1b,speeded_recognition,11,AB,intermixed,6,correct,1221
24,1b,speeded_recognition,12,AC,blocked,2,correct,1318
24,1b,speeded_recognition,13,BC,intermixed,6,correct,1096
24,1b,speeded_recognition,14,BC,blocked,3,correct,2316
24,1b,speeded_recognition,15,foil,intermixed,N/A,correct,1523
24,1b,speeded_recognition,16,AC,blocked,1,correct,1786
24,1b,speeded_recognition,17,AB,intermixed,5,correct,1338
24,1b,speeded_recognition,18,foil,blocked,N/A,correct,2393
24,1b,speeded_recognition,19,BC,blocked,1,correct,1144
24,1b,speeded_recognition,20,AC,intermixed,5,incorrect,1929
24,1b,speeded_recognition,21,AC,blocked,3,correct,1291
24,1b,speeded_recognition,22,foil,blocked,N/A,correct,1331
24,1b,speeded_recognition,23,AC,intermixed,5,incorrect,1434
24,1b,speeded_recognition,24,AC,blocked,2,correct,1511
24,1b,speeded_recognition,25,foil,intermixed,N/A,correct,1663
24,1b,speeded_recognition,26,AB,intermixed,4,correct,1578
24,1b,speeded_recognition,27,BC,blocked,2,correct,1648
24,1b,speeded_recognition,28,BC,intermixed,6,correct,1749
24,1b,speeded_recognition,29,BC,blocked,1,correct,1528
24,1b,speeded_recognition,30,BC,intermixed,4,correct,928
24,1b,speeded_recognition,31,AB,blocked,1,correct,978
24,1b,speeded_recognition,32,BC,intermixed,4,correct,868
24,1b,speeded_recognition,33,foil,intermixed,N/A,correct,2494
24,1b,speeded_recognition,34,AB,blocked,2,N/A,N/A
24,1b,speeded_recognition,35,AC,intermixed,6,correct,2249
24,1b,speeded_recognition,36,AC,blocked,1,correct,1684
24,1b,speeded_recognition,37,AB,intermixed,4,correct,1054
24,1b,speeded_recognition,38,AB,blocked,1,correct,1414
24,1b,speeded_recognition,39,foil,intermixed,N/A,incorrect,1507
24,1b,speeded_recognition,40,BC,intermixed,5,correct,1348
24,1b,speeded_recognition,41,AB,blocked,3,correct,1327
24,1b,speeded_recognition,42,foil,intermixed,N/A,correct,1285
24,1b,speeded_recognition,43,AC,blocked,3,correct,2241
24,1b,speeded_recognition,44,BC,intermixed,5,correct,1574
24,1b,speeded_recognition,45,foil,blocked,N/A,correct,1230
24,1b,speeded_recognition,46,AC,intermixed,4,incorrect,1298
24,1b,speeded_recognition,47,AB,blocked,3,correct,1799
24,1b,speeded_recognition,48,AC,intermixed,4,incorrect,902
24,1b,explicit_inference,1,AC,blocked,3,correct,2754
24,1b,explicit_inference,2,AC,intermixed,4,correct,1481
24,1b,explicit_inference,3,AC,blocked,2,correct,2126
24,1b,explicit_inference,4,AC,intermixed,5,correct,2374
24,1b,explicit_inference,5,AC,blocked,1,incorrect,2472
24,1b,explicit_inference,6,AC,intermixed,6,correct,2104
24,1b,explicit_inference,7,AC,intermixed,4,correct,1525
24,1b,explicit_inference,8,AC,blocked,3,correct,2478
24,1b,explicit_inference,9,AC,blocked,1,incorrect,2427
24,1b,explicit_inference,10,AC,intermixed,6,incorrect,2762
24,1b,explicit_inference,11,AC,intermixed,5,correct,2036
24,1b,explicit_inference,12,AC,blocked,2,correct,2188
25,1b,speeded_recognition,1,AB,blocked,2,correct,1130
25,1b,speeded_recognition,2,foil,blocked,N/A,incorrect,2022
25,1b,speeded_recognition,3,BC,intermixed,5,correct,1267
25,1b,speeded_recognition,4,BC,blocked,2,correct,1186
25,1b,speeded_recognition,5,foil,blocked,N/A,correct,2111
25,1b,speeded_recognition,6,AB,blocked,2,correct,1047
25,1b,speeded_recognition,7,AC,intermixed,5,N/A,N/A
25,1b,speeded_recognition,8,foil,intermixed,N/A,correct,2272
25,1b,speeded_recognition,9,AB,blocked,1,correct,1540
25,1b,speeded_recognition,10,AC,intermixed,4,correct,1594
25,1b,speeded_recognition,11,foil,blocked,N/A,correct,1983
25,1b,speeded_recognition,12,AB,intermixed,5,correct,943
25,1b,speeded_recognition,13,foil,intermixed,N/A,correct,1592
25,1b,speeded_recognition,14,AC,blocked,3,incorrect,1270
25,1b,speeded_recognition,15,BC,intermixed,6,correct,1260
25,1b,speeded_recognition,16,AC,blocked,3,incorrect,1524
25,1b,speeded_recognition,17,AC,intermixed,6,correct,1723
25,1b,speeded_recognition,18,BC,blocked,3,correct,815
25,1b,speeded_recognition,19,foil,intermixed,N/A,correct,1617
25,1b,speeded_recognition,20,AB,intermixed,4,correct,1526
25,1b,speeded_recognition,21,foil,intermixed,N/A,correct,1528
25,1b,speeded_recognition,22,BC,blocked,2,correct,1074
25,1b,speeded_recognition,23,foil,blocked,N/A,correct,2230
25,1b,speeded_recognition,24,AB,intermixed,4,correct,1080
25,1b,speeded_recognition,25,foil,blocked,N/A,correct,1790
25,1b,speeded_recognition,26,BC,blocked,1,correct,857
25,1b,speeded_recognition,27,AC,intermixed,6,correct,2206
25,1b,speeded_recognition,28,AC,blocked,1,correct,2022
25,1b,speeded_recognition,29,BC,intermixed,4,correct,967
25,1b,speeded_recognition,30,AC,blocked,1,correct,2165
25,1b,speeded_recognition,31,foil,intermixed,N/A,correct,2194
25,1b,speeded_recognition,32,BC,intermixed,6,correct,1226
25,1b,speeded_recognition,33,BC,blocked,3,correct,1034
25,1b,speeded_recognition,34,BC,intermixed,5,correct,2219
25,1b,speeded_recognition,35,AB,blocked,1,correct,898
25,1b,speeded_recognition,36,AC,intermixed,4,correct,2914
25,1b,speeded_recognition,37,AC,blocked,2,correct,2456
25,1b,speeded_recognition,38,AB,intermixed,6,correct,1060
25,1b,speeded_recognition,39,foil,intermixed,N/A,correct,2365
25,1b,speeded_recognition,40,foil,blocked,N/A,incorrect,1483
25,1b,speeded_recognition,41,BC,intermixed,4,correct,1144
25,1b,speeded_recognition,42,AC,blocked,2,correct,1782
25,1b,speeded_recognition,43,AB,intermixed,6,correct,937
25,1b,speeded_recognition,44,BC,blocked,1,correct,1035
25,1b,speeded_recognition,45,AB,intermixed,5,correct,780
25,1b,speeded_recognition,46,AB,blocked,3,correct,1034
25,1b,speeded_recognition,47,AC,intermixed,5,correct,1523
25,1b,speeded_recognition,48,AB,blocked,3,correct,701
25,1b,explicit_inference,1,AC,intermixed,6,correct,4089
25,1b,explicit_inference,2,AC,blocked,1,correct,3737
25,1b,explicit_inference,3,AC,blocked,3,correct,4507
25,1b,explicit_inference,4,AC,blocked,2,incorrect,5768
25,1b,explicit_inference,5,AC,intermixed,5,correct,4506
25,1b,explicit_inference,6,AC,intermixed,4,correct,4337
25,1b,explicit_inference,7,AC,blocked,2,correct,2194
25,1b,explicit_inference,8,AC,blocked,1,incorrect,2368
25,1b,explicit_inference,9,AC,intermixed,4,correct,2558
25,1b,explicit_inference,10,AC,intermixed,6,incorrect,1690
25,1b,explicit_inference,11,AC,intermixed,5,correct,3125
25,1b,explicit_inference,12,AC,blocked,3,correct,3501
26,1b,speeded_recognition,1,AC,blocked,3,correct,1317
26,1b,speeded_recognition,2,BC,intermixed,5,correct,1092
26,1b,speeded_recognition,3,BC,blocked,1,correct,804
26,1b,speeded_recognition,4,AC,intermixed,4,correct,1389
26,1b,speeded_recognition,5,foil,blocked,N/A,correct,1293
26,1b,speeded_recognition,6,AB,intermixed,6,correct,1034
26,1b,speeded_recognition,7,AB,blocked,1,correct,2780
26,1b,speeded_recognition,8,AB,intermixed,4,correct,870
26,1b,speeded_recognition,9,BC,blocked,1,correct,1029
26,1b,speeded_recognition,10,BC,intermixed,4,correct,1751
26,1b,speeded_recognition,11,foil,blocked,N/A,correct,1963
26,1b,speeded_recognition,12,AC,intermixed,5,correct,1016
26,1b,speeded_recognition,13,AC,blocked,3,correct,2072
26,1b,speeded_recognition,14,AC,intermixed,6,incorrect,1143
26,1b,speeded_recognition,15,AB,blocked,2,incorrect,1346
26,1b,speeded_recognition,16,foil,intermixed,N/A,correct,1282
26,1b,speeded_recognition,17,AC,intermixed,4,correct,1591
26,1b,speeded_recognition,18,AC,blocked,2,correct,1274
26,1b,speeded_recognition,19,foil,intermixed,N/A,correct,1141
26,1b,speeded_recognition,20,AB,intermixed,5,correct,1377
26,1b,speeded_recognition,21,BC,blocked,2,correct,845
26,1b,speeded_recognition,22,AC,intermixed,5,correct,1398
26,1b,speeded_recognition,23,BC,blocked,3,correct,983
26,1b,speeded_recognition,24,BC,intermixed,6,correct,844
26,1b,speeded_recognition,25,AC,blocked,1,correct,876
26,1b,speeded_recognition,26,BC,intermixed,5,correct,707
26,1b,speeded_recognition,27,AB,blocked,3,correct,925
26,1b,speeded_recognition,28,BC,intermixed,6,correct,759
26,1b,speeded_recognition,29,BC,blocked,2,correct,852
26,1b,speeded_recognition,30,AB,intermixed,5,correct,1172
26,1b,speeded_recognition,31,foil,blocked,N/A,correct,1074
26,1b,speeded_recognition,32,AB,blocked,2,incorrect,926
26,1b,speeded_recognition,33,foil,intermixed,N/A,correct,973
26,1b,speeded_recognition,34,foil,intermixed,N/A,correct,986
26,1b,speeded_recognition,35,BC,blocked,3,correct,1174
26,1b,speeded_recognition,36,AB,intermixed,4,correct,830
26,1b,speeded_recognition,37,foil,intermixed,N/A,correct,1319
26,1b,speeded_recognition,38,AB,blocked,1,correct,797
26,1b,speeded_recognition,39,AC,intermixed,6,incorrect,1255
26,1b,speeded_recognition,40,foil,intermixed,N/A,correct,1086
26,1b,speeded_recognition,41,AC,blocked,1,correct,876
26,1b,speeded_recognition,42,foil,blocked,N/A,correct,1317
26,1b,speeded_recognition,43,BC,intermixed,4,correct,1194
26,1b,speeded_recognition,44,foil,blocked,N/A,correct,1020
26,1b,speeded_recognition,45,AB,blocked,3,correct,803
26,1b,speeded_recognition,46,AB,intermixed,6,correct,1037
26,1b,speeded_recognition,47,AC,blocked,2,correct,854
26,1b,speeded_recognition,48,foil,blocked,N/A,correct,1409
26,1b,explicit_inference,1,AC,blocked,2,correct,3493
26,1b,explicit_inference,2,AC,intermixed,5,correct,3077
26,1b,explicit_inference,3,AC,intermixed,6,correct,2040
26,1b,explicit_inference,4,AC,intermixed,4,correct,2487
26,1b,explicit_inference,5,AC,blocked,1,incorrect,3142
26,1b,explicit_inference,6,AC,blocked,3,correct,1822
26,1b,explicit_inference,7,AC,intermixed,4,correct,1460
26,1b,explicit_inference,8,AC,intermixed,5,incorrect,2988
26,1b,explicit_inference,9,AC,blocked,1,incorrect,2467
26,1b,explicit_inference,10,AC,blocked,3,correct,2338
26,1b,explicit_inference,11,AC,intermixed,6,correct,1981
26,1b,explicit_inference,12,AC,blocked,2,correct,2733
27,1b,speeded_recognition,1,foil,intermixed,N/A,correct,1212
27,1b,speeded_recognition,2,AC,intermixed,6,correct,1128
27,1b,speeded_recognition,3,AB,blocked,3,correct,1916
27,1b,speeded_recognition,4,foil,intermixed,N/A,correct,1696
27,1b,speeded_recognition,5,BC,intermixed,4,correct,1062
27,1b,speeded_recognition,6,foil,blocked,N/A,correct,1086
27,1b,speeded_recognition,7,AB,intermixed,6,correct,1690
27,1b,speeded_recognition,8,AC,blocked,1,correct,1021
27,1b,speeded_recognition,9,AC,intermixed,5,correct,1611
27,1b,speeded_recognition,10,foil,intermixed,N/A,correct,1012
27,1b,speeded_recognition,11,AC,blocked,1,correct,1122
27,1b,speeded_recognition,12,foil,blocked,N/A,correct,1233
27,1b,speeded_recognition,13,AC,intermixed,4,correct,1269
27,1b,speeded_recognition,14,AB,blocked,1,incorrect,1791
27,1b,speeded_recognition,15,foil,intermixed,N/A,correct,1397
27,1b,speeded_recognition,16,BC,intermixed,6,incorrect,1492
27,1b,speeded_recognition,17,AC,blocked,2,correct,1316
27,1b,speeded_recognition,18,AC,intermixed,4,correct,1080
27,1b,speeded_recognition,19,AB,blocked,1,correct,1775
27,1b,speeded_recognition,20,AB,intermixed,4,correct,1244
27,1b,speeded_recognition,21,AC,blocked,3,correct,1567
27,1b,speeded_recognition,22,foil,intermixed,N/A,correct,1026
27,1b,speeded_recognition,23,BC,blocked,2,correct,1407
27,1b,speeded_recognition,24,AB,intermixed,6,correct,1055
27,1b,speeded_recognition,25,AC,blocked,3,correct,1221
27,1b,speeded_recognition,26,AB,intermixed,5,correct,1032
27,1b,speeded_recognition,27,foil,blocked,N/A,correct,1287
27,1b,speeded_recognition,28,BC,blocked,3,correct,1553
27,1b,speeded_recognition,29,foil,blocked,N/A,correct,1204
27,1b,speeded_recognition,30,AC,intermixed,5,N/A,N/A
27,1b,speeded_recognition,31,AB,blocked,2,correct,2020
27,1b,speeded_recognition,32,BC,intermixed,5,correct,1310
27,1b,speeded_recognition,33,BC,blocked,2,correct,919
27,1b,speeded_recognition,34,AC,intermixed,6,correct,1331
27,1b,speeded_recognition,35,BC,blocked,1,correct,852
27,1b,speeded_recognition,36,BC,intermixed,5,correct,1274
27,1b,speeded_recognition,37,AC,blocked,2,correct,1597
27,1b,speeded_recognition,38,AB,intermixed,5,correct,760
27,1b,speeded_recognition,39,foil,blocked,N/A,correct,1026
27,1b,speeded_recognition,40,AB,blocked,2,correct,1607
27,1b,speeded_recognition,41,foil,blocked,N/A,correct,1567
27,1b,speeded_recognition,42,BC,intermixed,6,correct,1048
27,1b,speeded_recognition,43,AB,blocked,3,correct,1272
27,1b,speeded_recognition,44,foil,intermixed,N/A,correct,1612
27,1b,speeded_recognition,45,AB,intermixed,4,correct,968
27,1b,speeded_recognition,46,BC,blocked,1,correct,970
27,1b,speeded_recognition,47,BC,intermixed,4,correct,921
27,1b,speeded_recognition,48,BC,blocked,3,correct,1085
27,1b,explicit_inference,1,AC,intermixed,5,correct,4414
27,1b,explicit_inference,2,AC,intermixed,6,correct,5458
27,1b,explicit_inference,3,AC,blocked,1,correct,6625
27,1b,explicit_inference,4,AC,blocked,2,incorrect,3608
27,1b,explicit_inference,5,AC,intermixed,4,incorrect,2852
27,1b,explicit_inference,6,AC,blocked,3,incorrect,2499
27,1b,explicit_inference,7,AC,blocked,2,correct,3968
27,1b,explicit_inference,8,AC,intermixed,6,incorrect,2470
27,1b,explicit_inference,9,AC,intermixed,4,correct,2645
27,1b,explicit_inference,10,AC,blocked,1,correct,2740
27,1b,explicit_inference,11,AC,blocked,3,incorrect,2991
27,1b,explicit_inference,12,AC,intermixed,5,correct,3146
28,1b,speeded_recognition,1,BC,intermixed,5,incorrect,1137
28,1b,speeded_recognition,2,AC,blocked,2,correct,1358
28,1b,speeded_recognition,3,AC,intermixed,6,correct,1435
28,1b,speeded_recognition,4,AC,blocked,1,incorrect,2421
28,1b,speeded_recognition,5,AB,intermixed,6,correct,1566
28,1b,speeded_recognition,6,AC,blocked,3,correct,2128
28,1b,speeded_recognition,7,AC,intermixed,4,incorrect,2442
28,1b,speeded_recognition,8,BC,blocked,2,correct,1978
28,1b,speeded_recognition,9,BC,intermixed,6,correct,1943
28,1b,speeded_recognition,10,foil,intermixed,N/A,correct,2255
28,1b,speeded_recognition,11,foil,intermixed,N/A,correct,2102
28,1b,speeded_recognition,12,BC,blocked,3,correct,1302
28,1b,speeded_recognition,13,foil,blocked,N/A,correct,1984
28,1b,speeded_recognition,14,AC,intermixed,5,incorrect,2101
28,1b,speeded_recognition,15,AB,blocked,2,correct,2282
28,1b,speeded_recognition,16,foil,intermixed,N/A,correct,2436
28,1b,speeded_recognition,17,AC,intermixed,6,correct,2405
28,1b,speeded_recognition,18,AB,blocked,3,correct,1683
28,1b,speeded_recognition,19,foil,blocked,N/A,incorrect,2266
28,1b,speeded_recognition,20,BC,blocked,2,correct,3280
28,1b,speeded_recognition,21,BC,intermixed,4,correct,2148
28,1b,speeded_recognition,22,AB,blocked,3,correct,2510
28,1b,speeded_recognition,23,AB,intermixed,5,correct,1912
28,1b,speeded_recognition,24,BC,blocked,1,correct,1461
28,1b,speeded_recognition,25,AB,intermixed,4,correct,1232
28,1b,speeded_recognition,26,foil,blocked,N/A,correct,3243
28,1b,speeded_recognition,27,AB,intermixed,5,correct,1356
28,1b,speeded_recognition,28,foil,blocked,N/A,correct,1622
28,1b,speeded_recognition,29,AB,blocked,2,correct,2184
28,1b,speeded_recognition,30,foil,blocked,N/A,correct,2904
28,1b,speeded_recognition,31,AC,intermixed,5,correct,2031
28,1b,speeded_recognition,32,BC,blocked,1,correct,1667
28,1b,speeded_recognition,33,AB,intermixed,4,correct,1326
28,1b,speeded_recognition,34,AC,blocked,3,correct,1869
28,1b,speeded_recognition,35,AB,intermixed,6,correct,1206
28,1b,speeded_recognition,36,foil,intermixed,N/A,correct,1833
28,1b,speeded_recognition,37,AC,blocked,1,correct,2284
28,1b,speeded_recognition,38,foil,intermixed,N/A,correct,2366
28,1b,speeded_recognition,39,BC,intermixed,6,correct,1785
28,1b,speeded_recognition,40,BC,blocked,3,correct,1870
28,1b,speeded_recognition,41,BC,intermixed,5,correct,2404
28,1b,speeded_recognition,42,AB,blocked,1,incorrect,3015
28,1b,speeded_recognition,43,foil,intermixed,N/A,correct,2060
28,1b,speeded_recognition,44,AC,intermixed,4,correct,1565
28,1b,speeded_recognition,45,AC,blocked,2,incorrect,1195
28,1b,speeded_recognition,46,BC,intermixed,4,incorrect,2148
28,1b,speeded_recognition,47,foil,blocked,N/A,correct,1775
28,1b,speeded_recognition,48,AB,blocked,1,incorrect,2566
28,1b,explicit_inference,1,AC,blocked,1,correct,3701
28,1b,explicit_inference,2,AC,intermixed,5,correct,3644
28,1b,explicit_inference,3,AC,intermixed,6,correct,3898
28,1b,explicit_inference,4,AC,intermixed,4,correct,2893
28,1b,explicit_inference,5,AC,blocked,3,incorrect,3216
28,1b,explicit_inference,6,AC,blocked,2,correct,1509
28,1b,explicit_inference,7,AC,intermixed,5,correct,2152
28,1b,explicit_inference,8,AC,blocked,3,correct,2347
28,1b,explicit_inference,9,AC,blocked,1,correct,1406
28,1b,explicit_inference,10,AC,intermixed,4,correct,5212
28,1b,explicit_inference,11,AC,blocked,2,correct,2742
28,1b,explicit_inference,12,AC,intermixed,6,correct,2435
29,1b,speeded_recognition,1,AB,intermixed,5,incorrect,1315
29,1b,speeded_recognition,2,AC,blocked,1,correct,1037
29,1b,speeded_recognition,3,foil,intermixed,N/A,correct,1630
29,1b,speeded_recognition,4,BC,intermixed,6,correct,1200
29,1b,speeded_recognition,5,AB,blocked,2,correct,983
29,1b,speeded_recognition,6,foil,blocked,N/A,correct,1423
29,1b,speeded_recognition,7,BC,intermixed,4,incorrect,1777
29,1b,speeded_recognition,8,AB,blocked,2,correct,710
29,1b,speeded_recognition,9,AC,intermixed,6,correct,1203
29,1b,speeded_recognition,10,AC,blocked,3,correct,1355
29,1b,speeded_recognition,11,foil,intermixed,N/A,correct,1104
29,1b,speeded_recognition,12,BC,blocked,3,correct,1472
29,1b,speeded_recognition,13,AB,intermixed,6,correct,1365
29,1b,speeded_recognition,14,foil,intermixed,N/A,correct,1075
29,1b,speeded_recognition,15,BC,blocked,1,correct,1524
29,1b,speeded_recognition,16,AB,intermixed,5,correct,1036
29,1b,speeded_recognition,17,foil,blocked,N/A,correct,1454
29,1b,speeded_recognition,18,AC,blocked,3,incorrect,833
29,1b,speeded_recognition,19,AB,intermixed,6,correct,1029
29,1b,speeded_recognition,20,AB,blocked,3,correct,956
29,1b,speeded_recognition,21,AB,intermixed,4,correct,1141
29,1b,speeded_recognition,22,foil,intermixed,N/A,correct,996
29,1b,speeded_recognition,23,AB,blocked,3,correct,832
29,1b,speeded_recognition,24,foil,intermixed,N/A,correct,1386
29,1b,speeded_recognition,25,BC,intermixed,5,correct,1162
29,1b,speeded_recognition,26,BC,blocked,3,correct,1118
29,1b,speeded_recognition,27,AC,intermixed,5,correct,857
29,1b,speeded_recognition,28,BC,blocked,2,correct,1024
29,1b,speeded_recognition,29,BC,intermixed,6,incorrect,2054
29,1b,speeded_recognition,30,AC,blocked,1,incorrect,1238
29,1b,speeded_recognition,31,foil,intermixed,N/A,correct,1219
29,1b,speeded_recognition,32,BC,intermixed,5,correct,891
29,1b,speeded_recognition,33,BC,blocked,2,correct,938
29,1b,speeded_recognition,34,AC,intermixed,4,correct,873
29,1b,speeded_recognition,35,AB,blocked,1,correct,1252
29,1b,speeded_recognition,36,foil,blocked,N/A,correct,1130
29,1b,speeded_recognition,37,AB,intermixed,4,incorrect,1131
29,1b,speeded_recognition,38,AB,blocked,1,correct,767
29,1b,speeded_recognition,39,foil,blocked,N/A,correct,1112
29,1b,speeded_recognition,40,AC,blocked,2,correct,1179
29,1b,speeded_recognition,41,AC,intermixed,5,correct,983
29,1b,speeded_recognition,42,foil,blocked,N/A,correct,1003
29,1b,speeded_recognition,43,BC,intermixed,4,correct,1017
29,1b,speeded_recognition,44,AC,blocked,2,correct,1258
29,1b,speeded_recognition,45,AC,intermixed,6,correct,1276
29,1b,speeded_recognition,46,foil,blocked,N/A,correct,1044
29,1b,speeded_recognition,47,AC,intermixed,4,correct,1307
29,1b,speeded_recognition,48,BC,blocked,1,correct,1208
29,1b,explicit_inference,1,AC,intermixed,6,correct,3673
29,1b,explicit_inference,2,AC,intermixed,4,correct,1594
29,1b,explicit_inference,3,AC,intermixed,5,correct,2186
29,1b,explicit_inference,4,AC,blocked,2,correct,1559
29,1b,explicit_inference,5,AC,blocked,1,correct,1319
29,1b,explicit_inference,6,AC,blocked,3,correct,2044
29,1b,explicit_inference,7,AC,intermixed,4,incorrect,1300
29,1b,explicit_inference,8,AC,blocked,1,correct,1629
29,1b,explicit_inference,9,AC,blocked,2,correct,1259
29,1b,explicit_inference,10,AC,blocked,3,correct,1059
29,1b,explicit_inference,11,AC,intermixed,5,correct,1021
29,1b,explicit_inference,12,AC,intermixed,6,incorrect,1599
30,1b,speeded_recognition,1,BC,intermixed,4,correct,1039
30,1b,speeded_recognition,2,foil,intermixed,N/A,correct,1256
30,1b,speeded_recognition,3,AB,blocked,1,correct,856
30,1b,speeded_recognition,4,foil,intermixed,N/A,correct,1194
30,1b,speeded_recognition,5,AB,intermixed,4,correct,1091
30,1b,speeded_recognition,6,foil,intermixed,N/A,correct,1080
30,1b,speeded_recognition,7,AB,blocked,2,correct,1184
30,1b,speeded_recognition,8,AB,intermixed,4,correct,1022
30,1b,speeded_recognition,9,AC,blocked,1,correct,1790
30,1b,speeded_recognition,10,AB,intermixed,6,correct,1119
30,1b,speeded_recognition,11,BC,blocked,3,correct,1270
30,1b,speeded_recognition,12,BC,intermixed,5,correct,1052
30,1b,speeded_recognition,13,AC,blocked,3,correct,1004
30,1b,speeded_recognition,14,foil,blocked,N/A,correct,1405
30,1b,speeded_recognition,15,BC,blocked,1,correct,1328
30,1b,speeded_recognition,16,AC,intermixed,6,correct,1153
30,1b,speeded_recognition,17,AC,blocked,2,correct,1504
30,1b,speeded_recognition,18,AC,intermixed,4,correct,1072
30,1b,speeded_recognition,19,AC,blocked,1,correct,1471
30,1b,speeded_recognition,20,AB,intermixed,5,correct,1122
30,1b,speeded_recognition,21,foil,intermixed,N/A,correct,1225
30,1b,speeded_recognition,22,AC,blocked,2,correct,1215
30,1b,speeded_recognition,23,AC,intermixed,5,correct,1440
30,1b,speeded_recognition,24,AB,blocked,2,correct,1012
30,1b,speeded_recognition,25,foil,blocked,N/A,correct,813
