subject,experiment,task_type,trial_number,target_pair_type,target_pair_condition,target_triad_index,response_correct,response_time
1,1c,speeded_recognition,1,foil,blocked,N/A,correct,1017
1,1c,speeded_recognition,2,AC,intermixed,4,incorrect,1936
1,1c,speeded_recognition,3,BC,blocked,2,correct,1500
1,1c,speeded_recognition,4,AC,intermixed,5,correct,1499
1,1c,speeded_recognition,5,AC,blocked,3,correct,1357
1,1c,speeded_recognition,6,AC,intermixed,4,incorrect,1365
1,1c,speeded_recognition,7,foil,intermixed,N/A,correct,1325
1,1c,speeded_recognition,8,AB,blocked,3,incorrect,1190
1,1c,speeded_recognition,9,AB,intermixed,5,correct,1056
1,1c,speeded_recognition,10,AC,blocked,2,correct,1438
1,1c,speeded_recognition,11,BC,intermixed,5,correct,1447
1,1c,speeded_recognition,12,AC,blocked,3,correct,1317
1,1c,speeded_recognition,13,foil,intermixed,N/A,correct,1638
1,1c,speeded_recognition,14,AB,blocked,1,incorrect,1194
1,1c,speeded_recognition,15,BC,intermixed,6,correct,921
1,1c,speeded_recognition,16,AC,blocked,1,correct,1626
1,1c,speeded_recognition,17,foil,intermixed,N/A,correct,1416
1,1c,speeded_recognition,18,BC,blocked,1,correct,731
1,1c,speeded_recognition,19,AB,intermixed,5,correct,1019
1,1c,speeded_recognition,20,foil,blocked,N/A,correct,1423
1,1c,speeded_recognition,21,foil,intermixed,N/A,correct,1779
1,1c,speeded_recognition,22,AC,intermixed,6,correct,1343
1,1c,speeded_recognition,23,BC,blocked,3,correct,893
1,1c,speeded_recognition,24,AB,intermixed,4,correct,1191
1,1c,speeded_recognition,25,foil,intermixed,N/A,incorrect,2015
1,1c,speeded_recognition,26,AC,blocked,1,correct,1784
1,1c,speeded_recognition,27,BC,intermixed,4,incorrect,1300
1,1c,speeded_recognition,28,foil,blocked,N/A,correct,1125
1,1c,speeded_recognition,29,AC,intermixed,5,correct,1631
1,1c,speeded_recognition,30,AB,blocked,2,correct,865
1,1c,speeded_recognition,31,BC,intermixed,6,correct,917
1,1c,speeded_recognition,32,BC,blocked,1,correct,971
1,1c,speeded_recognition,33,AC,intermixed,6,correct,1354
1,1c,speeded_recognition,34,BC,blocked,3,correct,985
1,1c,speeded_recognition,35,AB,intermixed,6,incorrect,1664
1,1c,speeded_recognition,36,AB,blocked,2,correct,809
1,1c,speeded_recognition,37,foil,blocked,N/A,correct,1754
1,1c,speeded_recognition,38,BC,blocked,2,correct,1161
1,1c,speeded_recognition,39,BC,intermixed,5,correct,919
1,1c,speeded_recognition,40,foil,intermixed,N/A,correct,1159
1,1c,speeded_recognition,41,AB,intermixed,6,incorrect,1286
1,1c,speeded_recognition,42,AB,blocked,1,correct,1214
1,1c,speeded_recognition,43,BC,intermixed,4,correct,1309
1,1c,speeded_recognition,44,AC,blocked,2,correct,859
1,1c,speeded_recognition,45,foil,blocked,N/A,correct,1037
1,1c,speeded_recognition,46,AB,intermixed,4,correct,1122
1,1c,speeded_recognition,47,foil,blocked,N/A,correct,1391
1,1c,speeded_recognition,48,AB,blocked,3,correct,1051
1,1c,explicit_inference,1,AC,blocked,2,correct,3786
1,1c,explicit_inference,2,AC,blocked,3,correct,4022
1,1c,explicit_inference,3,AC,blocked,1,incorrect,1993
1,1c,explicit_inference,4,AC,intermixed,5,correct,2607
1,1c,explicit_inference,5,AC,blocked,2,correct,2365
1,1c,explicit_inference,6,AC,intermixed,6,correct,2260
1,1c,explicit_inference,7,AC,blocked,1,incorrect,2649
1,1c,explicit_inference,8,AC,intermixed,4,incorrect,2519
1,1c,explicit_inference,9,AC,blocked,3,correct,2446
1,1c,explicit_inference,10,AC,intermixed,6,incorrect,1679
1,1c,explicit_inference,11,AC,intermixed,5,correct,3303
1,1c,explicit_inference,12,AC,intermixed,4,correct,2216
1,1c,explicit_direct,1,BC,blocked,3,correct,3795
1,1c,explicit_direct,2,AB,intermixed,4,correct,2066
1,1c,explicit_direct,3,AB,intermixed,6,incorrect,1785
1,1c,explicit_direct,4,BC,intermixed,5,correct,1735
1,1c,explicit_direct,5,AB,blocked,2,correct,1267
1,1c,explicit_direct,6,AB,blocked,3,correct,1397
1,1c,explicit_direct,7,BC,blocked,1,correct,1065
1,1c,explicit_direct,8,BC,blocked,2,correct,1550
1,1c,explicit_direct,9,AB,intermixed,5,correct,1622
1,1c,explicit_direct,10,BC,blocked,3,correct,2414
1,1c,explicit_direct,11,BC,intermixed,5,correct,1679
1,1c,explicit_direct,12,AB,blocked,3,correct,918
1,1c,explicit_direct,13,BC,blocked,2,correct,1344
1,1c,explicit_direct,14,BC,intermixed,6,correct,1882
1,1c,explicit_direct,15,BC,blocked,1,correct,1161
1,1c,explicit_direct,16,AB,intermixed,4,correct,2156
1,1c,explicit_direct,17,AB,blocked,1,correct,1630
1,1c,explicit_direct,18,BC,intermixed,6,correct,1356
1,1c,explicit_direct,19,AB,blocked,1,correct,1646
1,1c,explicit_direct,20,AB,intermixed,5,correct,1954
1,1c,explicit_direct,21,BC,intermixed,4,correct,1465
1,1c,explicit_direct,22,AB,blocked,2,correct,1114
1,1c,explicit_direct,23,BC,intermixed,4,correct,2834
1,1c,explicit_direct,24,AB,intermixed,6,correct,2340
2,1c,speeded_recognition,1,foil,blocked,N/A,correct,999
2,1c,speeded_recognition,2,BC,intermixed,6,correct,1251
2,1c,speeded_recognition,3,foil,intermixed,N/A,correct,972
2,1c,speeded_recognition,4,AC,intermixed,6,correct,869
2,1c,speeded_recognition,5,AB,blocked,3,correct,1224
2,1c,speeded_recognition,6,AC,intermixed,5,correct,940
2,1c,speeded_recognition,7,AC,blocked,1,correct,1224
2,1c,speeded_recognition,8,BC,intermixed,5,correct,939
2,1c,speeded_recognition,9,foil,blocked,N/A,correct,939
2,1c,speeded_recognition,10,BC,blocked,3,correct,1179
2,1c,speeded_recognition,11,foil,intermixed,N/A,correct,1182
2,1c,speeded_recognition,12,BC,intermixed,6,correct,1387
2,1c,speeded_recognition,13,AB,blocked,2,correct,1324
2,1c,speeded_recognition,14,foil,blocked,N/A,incorrect,2316
2,1c,speeded_recognition,15,foil,blocked,N/A,correct,1380
2,1c,speeded_recognition,16,AB,intermixed,5,correct,1250
2,1c,speeded_recognition,17,AC,blocked,2,correct,1076
2,1c,speeded_recognition,18,foil,intermixed,N/A,correct,963
2,1c,speeded_recognition,19,AB,blocked,1,correct,1060
2,1c,speeded_recognition,20,AB,intermixed,6,correct,1171
2,1c,speeded_recognition,21,AB,blocked,3,correct,835
2,1c,speeded_recognition,22,AC,intermixed,6,correct,932
2,1c,speeded_recognition,23,AC,blocked,1,correct,1294
2,1c,speeded_recognition,24,foil,intermixed,N/A,correct,898
2,1c,speeded_recognition,25,AC,intermixed,4,correct,827
2,1c,speeded_recognition,26,BC,blocked,1,correct,1164
2,1c,speeded_recognition,27,AB,intermixed,4,correct,796
2,1c,speeded_recognition,28,foil,blocked,N/A,incorrect,1107
2,1c,speeded_recognition,29,AB,blocked,1,correct,983
2,1c,speeded_recognition,30,AC,intermixed,5,correct,1151
2,1c,speeded_recognition,31,BC,blocked,1,correct,1299
2,1c,speeded_recognition,32,BC,intermixed,4,correct,1571
2,1c,speeded_recognition,33,BC,blocked,2,correct,1285
2,1c,speeded_recognition,34,foil,intermixed,N/A,correct,818
2,1c,speeded_recognition,35,foil,intermixed,N/A,correct,1071
2,1c,speeded_recognition,36,BC,blocked,2,correct,1415
2,1c,speeded_recognition,37,AC,intermixed,4,correct,1088
2,1c,speeded_recognition,38,foil,blocked,N/A,correct,1348
2,1c,speeded_recognition,39,AC,blocked,2,correct,1515
2,1c,speeded_recognition,40,AB,intermixed,6,correct,1403
2,1c,speeded_recognition,41,AC,blocked,3,correct,1381
2,1c,speeded_recognition,42,AB,intermixed,5,correct,1232
2,1c,speeded_recognition,43,AC,blocked,3,correct,1235
2,1c,speeded_recognition,44,AB,intermixed,4,correct,1263
2,1c,speeded_recognition,45,BC,blocked,3,correct,1288
2,1c,speeded_recognition,46,BC,intermixed,5,correct,1620
2,1c,speeded_recognition,47,AB,blocked,2,correct,1294
2,1c,speeded_recognition,48,BC,intermixed,4,correct,1167
2,1c,explicit_inference,1,AC,blocked,1,correct,3693
2,1c,explicit_inference,2,AC,intermixed,6,correct,3089
2,1c,explicit_inference,3,AC,intermixed,5,correct,1695
2,1c,explicit_inference,4,AC,blocked,1,correct,1873
2,1c,explicit_inference,5,AC,intermixed,5,correct,1497
2,1c,explicit_inference,6,AC,blocked,2,incorrect,2145
2,1c,explicit_inference,7,AC,blocked,3,correct,2048
2,1c,explicit_inference,8,AC,intermixed,4,correct,2555
2,1c,explicit_inference,9,AC,blocked,3,correct,2558
2,1c,explicit_inference,10,AC,intermixed,6,correct,1555
2,1c,explicit_inference,11,AC,blocked,2,correct,3083
2,1c,explicit_inference,12,AC,intermixed,4,correct,1648
2,1c,explicit_direct,1,AB,intermixed,6,correct,2629
2,1c,explicit_direct,2,AB,blocked,1,correct,1348
2,1c,explicit_direct,3,AB,blocked,3,correct,1253
2,1c,explicit_direct,4,BC,blocked,2,correct,1776
2,1c,explicit_direct,5,AB,blocked,1,correct,3249
2,1c,explicit_direct,6,AB,blocked,3,correct,1427
2,1c,explicit_direct,7,BC,intermixed,4,correct,1600
2,1c,explicit_direct,8,BC,blocked,1,correct,1760
2,1c,explicit_direct,9,AB,blocked,2,correct,1640
2,1c,explicit_direct,10,AB,intermixed,4,correct,1972
2,1c,explicit_direct,11,BC,blocked,2,correct,1845
2,1c,explicit_direct,12,BC,intermixed,6,correct,1448
2,1c,explicit_direct,13,AB,blocked,2,correct,1265
2,1c,explicit_direct,14,BC,intermixed,5,correct,1534
2,1c,explicit_direct,15,BC,blocked,3,correct,1432
2,1c,explicit_direct,16,BC,intermixed,6,correct,1543
2,1c,explicit_direct,17,BC,blocked,1,correct,1153
2,1c,explicit_direct,18,BC,intermixed,5,correct,1324
2,1c,explicit_direct,19,BC,intermixed,4,correct,1478
2,1c,explicit_direct,20,AB,intermixed,5,correct,1402
2,1c,explicit_direct,21,AB,intermixed,6,correct,1176
2,1c,explicit_direct,22,BC,blocked,3,correct,1240
2,1c,explicit_direct,23,AB,intermixed,5,correct,1136
2,1c,explicit_direct,24,AB,intermixed,4,correct,1194
3,1c,speeded_recognition,1,AB,intermixed,6,correct,1940
3,1c,speeded_recognition,2,foil,blocked,N/A,correct,1730
3,1c,speeded_recognition,3,BC,blocked,3,correct,1508
3,1c,speeded_recognition,4,BC,intermixed,5,correct,1405
3,1c,speeded_recognition,5,AC,blocked,3,correct,1400
3,1c,speeded_recognition,6,AC,intermixed,6,correct,1471
3,1c,speeded_recognition,7,BC,blocked,2,correct,1999
3,1c,speeded_recognition,8,AB,intermixed,5,correct,2011
3,1c,speeded_recognition,9,BC,blocked,2,correct,1481
3,1c,speeded_recognition,10,BC,intermixed,6,correct,1805
3,1c,speeded_recognition,11,foil,intermixed,N/A,correct,1832
3,1c,speeded_recognition,12,foil,blocked,N/A,correct,1174
3,1c,speeded_recognition,13,AB,blocked,3,correct,1382
3,1c,speeded_recognition,14,AB,intermixed,6,correct,1958
3,1c,speeded_recognition,15,BC,blocked,1,correct,2000
3,1c,speeded_recognition,16,AC,intermixed,5,correct,1977
3,1c,speeded_recognition,17,foil,blocked,N/A,correct,1881
3,1c,speeded_recognition,18,AC,blocked,1,correct,1777
3,1c,speeded_recognition,19,AC,intermixed,4,correct,1993
3,1c,speeded_recognition,20,AC,blocked,2,correct,1932
3,1c,speeded_recognition,21,foil,blocked,N/A,correct,1339
3,1c,speeded_recognition,22,BC,intermixed,4,correct,1884
3,1c,speeded_recognition,23,AB,blocked,3,correct,1539
3,1c,speeded_recognition,24,AC,intermixed,5,correct,2100
3,1c,speeded_recognition,25,AB,blocked,2,correct,2028
3,1c,speeded_recognition,26,AB,intermixed,4,correct,1505
3,1c,speeded_recognition,27,AC,blocked,3,correct,2121
3,1c,speeded_recognition,28,AC,intermixed,6,correct,2367
3,1c,speeded_recognition,29,AC,blocked,1,incorrect,1849
3,1c,speeded_recognition,30,foil,blocked,N/A,correct,1944
3,1c,speeded_recognition,31,foil,intermixed,N/A,correct,1964
3,1c,speeded_recognition,32,AB,blocked,1,N/A,N/A
3,1c,speeded_recognition,33,AB,intermixed,5,incorrect,1801
3,1c,speeded_recognition,34,AC,blocked,2,correct,1904
3,1c,speeded_recognition,35,AB,intermixed,4,correct,1938
3,1c,speeded_recognition,36,foil,intermixed,N/A,correct,1644
3,1c,speeded_recognition,37,AB,blocked,2,correct,1099
3,1c,speeded_recognition,38,BC,intermixed,6,correct,1409
3,1c,speeded_recognition,39,BC,blocked,3,correct,1543
3,1c,speeded_recognition,40,foil,blocked,N/A,correct,1895
3,1c,speeded_recognition,41,foil,intermixed,N/A,correct,1874
3,1c,speeded_recognition,42,AB,blocked,1,correct,1885
3,1c,speeded_recognition,43,BC,intermixed,4,correct,1937
3,1c,speeded_recognition,44,foil,intermixed,N/A,correct,1998
3,1c,speeded_recognition,45,AC,intermixed,4,correct,1945
3,1c,speeded_recognition,46,BC,blocked,1,correct,1892
3,1c,speeded_recognition,47,BC,intermixed,5,correct,1658
3,1c,speeded_recognition,48,foil,intermixed,N/A,correct,1860
3,1c,explicit_inference,1,AC,intermixed,5,correct,2953
3,1c,explicit_inference,2,AC,blocked,1,correct,2280
3,1c,explicit_inference,3,AC,blocked,3,correct,2158
3,1c,explicit_inference,4,AC,intermixed,6,correct,1441
3,1c,explicit_inference,5,AC,blocked,3,correct,1606
3,1c,explicit_inference,6,AC,blocked,2,correct,2111
3,1c,explicit_inference,7,AC,intermixed,4,correct,3545
3,1c,explicit_inference,8,AC,blocked,1,correct,2341
3,1c,explicit_inference,9,AC,blocked,2,correct,2615
3,1c,explicit_inference,10,AC,intermixed,6,correct,1820
3,1c,explicit_inference,11,AC,intermixed,4,correct,3451
3,1c,explicit_inference,12,AC,intermixed,5,correct,1858
3,1c,explicit_direct,1,AB,blocked,2,correct,1930
3,1c,explicit_direct,2,BC,blocked,3,correct,1009
3,1c,explicit_direct,3,AB,intermixed,4,correct,1200
3,1c,explicit_direct,4,AB,blocked,2,correct,1189
3,1c,explicit_direct,5,AB,intermixed,6,correct,1538
3,1c,explicit_direct,6,BC,blocked,1,correct,1034
3,1c,explicit_direct,7,AB,intermixed,5,correct,2392
3,1c,explicit_direct,8,BC,intermixed,6,correct,1343
3,1c,explicit_direct,9,BC,blocked,3,correct,1495
3,1c,explicit_direct,10,AB,intermixed,6,correct,1016
3,1c,explicit_direct,11,BC,intermixed,5,correct,1523
3,1c,explicit_direct,12,BC,blocked,1,correct,1350
3,1c,explicit_direct,13,BC,intermixed,4,correct,1131
3,1c,explicit_direct,14,AB,intermixed,5,correct,1550
3,1c,explicit_direct,15,AB,intermixed,4,correct,1983
3,1c,explicit_direct,16,BC,blocked,2,correct,3071
3,1c,explicit_direct,17,AB,blocked,1,correct,1337
3,1c,explicit_direct,18,AB,blocked,3,correct,1391
3,1c,explicit_direct,19,BC,intermixed,6,correct,1128
3,1c,explicit_direct,20,BC,intermixed,5,correct,1275
3,1c,explicit_direct,21,BC,blocked,2,correct,1244
3,1c,explicit_direct,22,AB,blocked,3,correct,1101
3,1c,explicit_direct,23,BC,intermixed,4,correct,1372
3,1c,explicit_direct,24,AB,blocked,1,correct,2364
4,1c,speeded_recognition,1,BC,intermixed,5,correct,1958
4,1c,speeded_recognition,2,AB,blocked,2,incorrect,1273
4,1c,speeded_recognition,3,foil,blocked,N/A,correct,2539
4,1c,speeded_recognition,4,BC,intermixed,4,correct,1228
4,1c,speeded_recognition,5,AB,blocked,3,correct,1965
4,1c,speeded_recognition,6,foil,intermixed,N/A,correct,1488
4,1c,speeded_recognition,7,AB,intermixed,5,correct,1491
4,1c,speeded_recognition,8,AB,blocked,3,correct,1212
4,1c,speeded_recognition,9,AC,intermixed,4,correct,1210
4,1c,speeded_recognition,10,BC,blocked,3,correct,1911
4,1c,speeded_recognition,11,BC,intermixed,6,correct,1204
4,1c,speeded_recognition,12,AB,blocked,2,correct,1339
4,1c,speeded_recognition,13,AC,intermixed,4,correct,1256
4,1c,speeded_recognition,14,foil,intermixed,N/A,correct,1579
4,1c,speeded_recognition,15,AC,blocked,1,correct,2431
4,1c,speeded_recognition,16,AB,intermixed,5,correct,1431
4,1c,speeded_recognition,17,foil,intermixed,N/A,correct,1318
4,1c,speeded_recognition,18,AC,blocked,3,correct,1704
4,1c,speeded_recognition,19,AC,intermixed,5,correct,1785
4,1c,speeded_recognition,20,foil,blocked,N/A,correct,2486
4,1c,speeded_recognition,21,BC,blocked,1,correct,2232
4,1c,speeded_recognition,22,foil,blocked,N/A,correct,1224
4,1c,speeded_recognition,23,AC,intermixed,6,incorrect,1696
4,1c,speeded_recognition,24,BC,blocked,2,incorrect,1091
4,1c,speeded_recognition,25,foil,blocked,N/A,correct,1680
4,1c,speeded_recognition,26,AB,intermixed,4,correct,2066
4,1c,speeded_recognition,27,BC,blocked,2,correct,1334
4,1c,speeded_recognition,28,BC,intermixed,5,correct,1562
4,1c,speeded_recognition,29,BC,blocked,3,correct,2937
4,1c,speeded_recognition,30,foil,blocked,N/A,correct,1964
4,1c,speeded_recognition,31,AB,blocked,1,correct,1727
4,1c,speeded_recognition,32,AB,intermixed,6,correct,2193
4,1c,speeded_recognition,33,foil,blocked,N/A,correct,1572
4,1c,speeded_recognition,34,AB,intermixed,6,correct,1697
4,1c,speeded_recognition,35,AC,blocked,2,incorrect,1396
4,1c,speeded_recognition,36,AC,intermixed,6,incorrect,1639
4,1c,speeded_recognition,37,AB,blocked,1,correct,1632
4,1c,speeded_recognition,38,AC,intermixed,5,incorrect,2258
4,1c,speeded_recognition,39,foil,intermixed,N/A,correct,1459
4,1c,speeded_recognition,40,AC,blocked,1,correct,1972
4,1c,speeded_recognition,41,foil,intermixed,N/A,correct,1430
4,1c,speeded_recognition,42,BC,intermixed,4,correct,1378
4,1c,speeded_recognition,43,BC,blocked,1,correct,1643
4,1c,speeded_recognition,44,BC,intermixed,6,correct,1655
4,1c,speeded_recognition,45,AC,blocked,2,incorrect,2001
4,1c,speeded_recognition,46,AB,intermixed,4,correct,2208
4,1c,speeded_recognition,47,foil,intermixed,N/A,correct,2110
4,1c,speeded_recognition,48,AC,blocked,3,incorrect,1985
4,1c,explicit_inference,1,AC,intermixed,4,correct,4187
4,1c,explicit_inference,2,AC,intermixed,6,correct,1405
4,1c,explicit_inference,3,AC,intermixed,5,correct,2487
4,1c,explicit_inference,4,AC,intermixed,4,incorrect,2714
4,1c,explicit_inference,5,AC,blocked,1,correct,2707
4,1c,explicit_inference,6,AC,intermixed,6,correct,1433
4,1c,explicit_inference,7,AC,blocked,3,correct,1334
4,1c,explicit_inference,8,AC,blocked,2,correct,1121
4,1c,explicit_inference,9,AC,blocked,1,incorrect,2320
4,1c,explicit_inference,10,AC,blocked,3,correct,1537
4,1c,explicit_inference,11,AC,intermixed,5,correct,2575
4,1c,explicit_inference,12,AC,blocked,2,correct,1138
4,1c,explicit_direct,1,BC,intermixed,4,correct,1266
4,1c,explicit_direct,2,BC,intermixed,6,correct,1313
4,1c,explicit_direct,3,AB,blocked,3,correct,1717
4,1c,explicit_direct,4,BC,blocked,1,correct,1466
4,1c,explicit_direct,5,AB,blocked,2,correct,1061
4,1c,explicit_direct,6,AB,blocked,3,correct,1646
4,1c,explicit_direct,7,AB,blocked,2,correct,1118
4,1c,explicit_direct,8,BC,intermixed,5,correct,2325
4,1c,explicit_direct,9,BC,intermixed,6,correct,1160
4,1c,explicit_direct,10,AB,blocked,1,correct,1569
4,1c,explicit_direct,11,AB,intermixed,6,correct,1122
4,1c,explicit_direct,12,BC,blocked,3,correct,1638
4,1c,explicit_direct,13,BC,intermixed,4,correct,1147
4,1c,explicit_direct,14,AB,intermixed,5,correct,2266
4,1c,explicit_direct,15,BC,blocked,1,correct,1412
4,1c,explicit_direct,16,AB,intermixed,4,correct,1723
4,1c,explicit_direct,17,AB,intermixed,5,incorrect,2938
4,1c,explicit_direct,18,BC,blocked,2,correct,1113
4,1c,explicit_direct,19,BC,blocked,3,correct,1674
4,1c,explicit_direct,20,AB,blocked,1,correct,1124
4,1c,explicit_direct,21,BC,blocked,2,correct,1176
4,1c,explicit_direct,22,AB,intermixed,4,correct,2007
4,1c,explicit_direct,23,BC,intermixed,5,correct,1739
4,1c,explicit_direct,24,AB,intermixed,6,correct,1196
5,1c,speeded_recognition,1,AB,intermixed,4,correct,1806
5,1c,speeded_recognition,2,AC,blocked,1,incorrect,2465
5,1c,speeded_recognition,3,AC,intermixed,6,incorrect,1872
5,1c,speeded_recognition,4,foil,intermixed,N/A,incorrect,1974
5,1c,speeded_recognition,5,BC,intermixed,5,correct,1635
5,1c,speeded_recognition,6,AC,blocked,2,incorrect,1482
5,1c,speeded_recognition,7,BC,intermixed,5,correct,1467
5,1c,speeded_recognition,8,AB,blocked,3,correct,1201
5,1c,speeded_recognition,9,AB,intermixed,6,correct,1547
5,1c,speeded_recognition,10,AC,blocked,2,incorrect,2099
5,1c,speeded_recognition,11,AC,intermixed,5,incorrect,2014
5,1c,speeded_recognition,12,AB,blocked,3,correct,2216
5,1c,speeded_recognition,13,foil,blocked,N/A,incorrect,2810
5,1c,speeded_recognition,14,AB,intermixed,4,correct,1585
5,1c,speeded_recognition,15,BC,blocked,2,correct,1550
5,1c,speeded_recognition,16,foil,blocked,N/A,incorrect,1638
5,1c,speeded_recognition,17,AB,intermixed,5,correct,1494
5,1c,speeded_recognition,18,AC,blocked,1,incorrect,1331
5,1c,speeded_recognition,19,AC,intermixed,4,incorrect,1925
5,1c,speeded_recognition,20,foil,intermixed,N/A,incorrect,1724
5,1c,speeded_recognition,21,BC,blocked,3,correct,1454
5,1c,speeded_recognition,22,BC,intermixed,6,correct,1733
5,1c,speeded_recognition,23,BC,blocked,1,correct,1626
5,1c,speeded_recognition,24,BC,intermixed,4,correct,1445
5,1c,speeded_recognition,25,foil,intermixed,N/A,incorrect,1430
5,1c,speeded_recognition,26,AB,blocked,1,correct,2244
5,1c,speeded_recognition,27,AC,intermixed,4,incorrect,2422
5,1c,speeded_recognition,28,AB,blocked,2,correct,1455
5,1c,speeded_recognition,29,foil,blocked,N/A,incorrect,1970
5,1c,speeded_recognition,30,BC,intermixed,4,correct,2180
5,1c,speeded_recognition,31,foil,blocked,N/A,incorrect,1780
5,1c,speeded_recognition,32,AC,blocked,3,incorrect,1234
5,1c,speeded_recognition,33,foil,intermixed,N/A,incorrect,1466
5,1c,speeded_recognition,34,BC,blocked,1,correct,1617
5,1c,speeded_recognition,35,AB,intermixed,6,correct,1948
5,1c,speeded_recognition,36,foil,blocked,N/A,incorrect,1494
5,1c,speeded_recognition,37,AC,blocked,3,incorrect,1520
5,1c,speeded_recognition,38,AC,intermixed,6,incorrect,1657
5,1c,speeded_recognition,39,AB,blocked,2,correct,1612
5,1c,speeded_recognition,40,foil,intermixed,N/A,incorrect,1087
5,1c,speeded_recognition,41,AB,blocked,1,correct,1605
5,1c,speeded_recognition,42,AB,intermixed,5,correct,969
5,1c,speeded_recognition,43,foil,blocked,N/A,incorrect,1356
5,1c,speeded_recognition,44,BC,blocked,2,correct,1604
5,1c,speeded_recognition,45,AC,intermixed,5,incorrect,1468
5,1c,speeded_recognition,46,BC,blocked,3,correct,1509
5,1c,speeded_recognition,47,BC,intermixed,6,correct,1284
5,1c,speeded_recognition,48,foil,intermixed,N/A,incorrect,1608
5,1c,explicit_inference,1,AC,intermixed,4,correct,8749
5,1c,explicit_inference,2,AC,blocked,1,correct,2598
5,1c,explicit_inference,3,AC,blocked,3,correct,4045
5,1c,explicit_inference,4,AC,blocked,2,correct,3757
5,1c,explicit_inference,5,AC,intermixed,4,correct,2529
5,1c,explicit_inference,6,AC,intermixed,5,correct,1989
5,1c,explicit_inference,7,AC,intermixed,6,incorrect,2641
5,1c,explicit_inference,8,AC,blocked,1,correct,2282
5,1c,explicit_inference,9,AC,intermixed,5,correct,2301
5,1c,explicit_inference,10,AC,blocked,2,correct,2583
5,1c,explicit_inference,11,AC,intermixed,6,correct,3208
5,1c,explicit_inference,12,AC,blocked,3,correct,2322
5,1c,explicit_direct,1,AB,blocked,1,correct,2776
5,1c,explicit_direct,2,BC,blocked,2,correct,5435
5,1c,explicit_direct,3,AB,blocked,3,correct,2496
5,1c,explicit_direct,4,BC,blocked,1,correct,1649
5,1c,explicit_direct,5,AB,intermixed,6,correct,2064
5,1c,explicit_direct,6,BC,intermixed,4,correct,2646
5,1c,explicit_direct,7,BC,blocked,2,incorrect,1496
5,1c,explicit_direct,8,AB,intermixed,4,correct,1943
5,1c,explicit_direct,9,BC,blocked,3,correct,1986
5,1c,explicit_direct,10,AB,intermixed,5,correct,1784
5,1c,explicit_direct,11,AB,blocked,2,incorrect,2982
5,1c,explicit_direct,12,BC,intermixed,5,correct,1705
5,1c,explicit_direct,13,AB,blocked,1,correct,2229
5,1c,explicit_direct,14,BC,intermixed,5,correct,1233
5,1c,explicit_direct,15,BC,intermixed,6,correct,1807
5,1c,explicit_direct,16,BC,blocked,1,correct,1654
5,1c,explicit_direct,17,AB,intermixed,6,incorrect,1257
5,1c,explicit_direct,18,AB,intermixed,5,correct,1411
5,1c,explicit_direct,19,BC,intermixed,6,incorrect,1587
5,1c,explicit_direct,20,BC,blocked,3,correct,1413
5,1c,explicit_direct,21,BC,intermixed,4,incorrect,1369
5,1c,explicit_direct,22,AB,blocked,2,correct,1754
5,1c,explicit_direct,23,AB,blocked,3,incorrect,1337
5,1c,explicit_direct,24,AB,intermixed,4,correct,1583
6,1c,speeded_recognition,1,BC,blocked,2,correct,1993
6,1c,speeded_recognition,2,foil,blocked,N/A,correct,1816
6,1c,speeded_recognition,3,AB,intermixed,4,correct,1406
6,1c,speeded_recognition,4,AB,blocked,1,correct,1882
6,1c,speeded_recognition,5,BC,intermixed,4,incorrect,1857
6,1c,speeded_recognition,6,foil,intermixed,N/A,correct,1420
6,1c,speeded_recognition,7,AB,blocked,3,correct,1560
6,1c,speeded_recognition,8,AC,intermixed,6,correct,3229
6,1c,speeded_recognition,9,AB,blocked,2,incorrect,2165
6,1c,speeded_recognition,10,BC,intermixed,4,correct,2324
6,1c,speeded_recognition,11,AB,blocked,1,correct,2167
6,1c,speeded_recognition,12,AC,intermixed,4,correct,1509
6,1c,speeded_recognition,13,foil,intermixed,N/A,correct,1433
6,1c,speeded_recognition,14,AC,blocked,2,incorrect,2682
6,1c,speeded_recognition,15,AC,intermixed,6,incorrect,1664
6,1c,speeded_recognition,16,BC,blocked,3,correct,1654
6,1c,speeded_recognition,17,foil,blocked,N/A,correct,1467
6,1c,speeded_recognition,18,BC,intermixed,6,correct,1823
6,1c,speeded_recognition,19,AC,blocked,1,correct,1685
6,1c,speeded_recognition,20,BC,intermixed,6,correct,1303
6,1c,speeded_recognition,21,AC,blocked,3,correct,1671
6,1c,speeded_recognition,22,foil,blocked,N/A,correct,1239
6,1c,speeded_recognition,23,AC,intermixed,5,correct,1855
6,1c,speeded_recognition,24,foil,intermixed,N/A,correct,1763
6,1c,speeded_recognition,25,BC,blocked,1,correct,1491
6,1c,speeded_recognition,26,AB,intermixed,6,correct,1474
6,1c,speeded_recognition,27,foil,blocked,N/A,correct,1980
6,1c,speeded_recognition,28,AB,blocked,2,correct,1807
6,1c,speeded_recognition,29,BC,intermixed,5,correct,1297
6,1c,speeded_recognition,30,BC,blocked,3,correct,1106
6,1c,speeded_recognition,31,AB,intermixed,4,correct,1178
6,1c,speeded_recognition,32,AC,blocked,2,incorrect,1616
6,1c,speeded_recognition,33,AC,intermixed,4,correct,1838
6,1c,speeded_recognition,34,foil,blocked,N/A,correct,1809
6,1c,speeded_recognition,35,AC,intermixed,5,correct,2144
6,1c,speeded_recognition,36,BC,blocked,2,correct,1962
6,1c,speeded_recognition,37,BC,intermixed,5,correct,1959
6,1c,speeded_recognition,38,foil,intermixed,N/A,correct,1533
6,1c,speeded_recognition,39,AC,blocked,1,correct,1881
6,1c,speeded_recognition,40,foil,intermixed,N/A,correct,1591
6,1c,speeded_recognition,41,AB,intermixed,6,incorrect,2586
6,1c,speeded_recognition,42,BC,blocked,1,correct,2196
6,1c,speeded_recognition,43,foil,blocked,N/A,correct,1551
6,1c,speeded_recognition,44,AB,intermixed,5,correct,2232
6,1c,speeded_recognition,45,AC,blocked,3,correct,2131
6,1c,speeded_recognition,46,foil,intermixed,N/A,correct,1331
6,1c,speeded_recognition,47,AB,intermixed,5,correct,1419
6,1c,speeded_recognition,48,AB,blocked,3,correct,2337
6,1c,explicit_inference,1,AC,intermixed,5,correct,3402
6,1c,explicit_inference,2,AC,blocked,2,correct,2157
6,1c,explicit_inference,3,AC,blocked,3,correct,2943
6,1c,explicit_inference,4,AC,blocked,1,incorrect,3656
6,1c,explicit_inference,5,AC,intermixed,4,correct,3191
6,1c,explicit_inference,6,AC,blocked,3,correct,4880
6,1c,explicit_inference,7,AC,intermixed,6,correct,3879
6,1c,explicit_inference,8,AC,intermixed,5,correct,2413
6,1c,explicit_inference,9,AC,blocked,2,correct,2423
6,1c,explicit_inference,10,AC,blocked,1,correct,1656
6,1c,explicit_inference,11,AC,intermixed,4,correct,2500
6,1c,explicit_inference,12,AC,intermixed,6,correct,1462
6,1c,explicit_direct,1,AB,blocked,1,correct,1604
6,1c,explicit_direct,2,AB,intermixed,6,correct,1582
6,1c,explicit_direct,3,BC,intermixed,4,correct,1295
6,1c,explicit_direct,4,AB,intermixed,5,correct,1213
6,1c,explicit_direct,5,BC,intermixed,6,correct,1382
6,1c,explicit_direct,6,AB,blocked,2,correct,1461
6,1c,explicit_direct,7,BC,blocked,3,incorrect,2376
6,1c,explicit_direct,8,BC,intermixed,5,correct,1401
6,1c,explicit_direct,9,BC,blocked,2,correct,1738
6,1c,explicit_direct,10,BC,blocked,3,incorrect,1905
6,1c,explicit_direct,11,BC,intermixed,4,correct,1281
6,1c,explicit_direct,12,AB,intermixed,6,correct,1262
6,1c,explicit_direct,13,AB,blocked,2,correct,1217
6,1c,explicit_direct,14,AB,blocked,3,correct,1244
6,1c,explicit_direct,15,BC,blocked,1,correct,1228
6,1c,explicit_direct,16,BC,intermixed,5,correct,1235
6,1c,explicit_direct,17,AB,blocked,3,correct,1188
6,1c,explicit_direct,18,AB,intermixed,4,correct,1084
6,1c,explicit_direct,19,BC,intermixed,6,correct,1151
6,1c,explicit_direct,20,AB,blocked,1,incorrect,1493
6,1c,explicit_direct,21,AB,intermixed,5,correct,1755
6,1c,explicit_direct,22,AB,intermixed,4,correct,1371
6,1c,explicit_direct,23,BC,blocked,2,correct,2141
6,1c,explicit_direct,24,BC,blocked,1,correct,1249
7,1c,speeded_recognition,1,AC,intermixed,6,N/A,N/A
7,1c,speeded_recognition,2,AC,blocked,3,N/A,N/A
7,1c,speeded_recognition,3,AC,intermixed,5,correct,1487
7,1c,speeded_recognition,4,BC,blocked,2,correct,1435
7,1c,speeded_recognition,5,BC,intermixed,6,correct,1476
7,1c,speeded_recognition,6,AB,blocked,3,correct,1501
7,1c,speeded_recognition,7,foil,blocked,N/A,correct,1501
7,1c,speeded_recognition,8,BC,blocked,1,correct,1667
7,1c,speeded_recognition,9,BC,intermixed,6,correct,1121
7,1c,speeded_recognition,10,foil,intermixed,N/A,incorrect,1089
7,1c,speeded_recognition,11,AB,blocked,2,correct,1281
7,1c,speeded_recognition,12,BC,intermixed,4,correct,930
7,1c,speeded_recognition,13,AC,blocked,2,correct,1288
7,1c,speeded_recognition,14,foil,blocked,N/A,correct,1503
7,1c,speeded_recognition,15,AC,intermixed,6,incorrect,1171
7,1c,speeded_recognition,16,AB,blocked,3,correct,1452
7,1c,speeded_recognition,17,foil,blocked,N/A,correct,1174
7,1c,speeded_recognition,18,AB,intermixed,4,correct,1057
7,1c,speeded_recognition,19,AC,blocked,3,correct,1443
7,1c,speeded_recognition,20,BC,intermixed,4,correct,828
7,1c,speeded_recognition,21,BC,blocked,3,correct,829
7,1c,speeded_recognition,22,BC,intermixed,5,correct,943
7,1c,speeded_recognition,23,AC,blocked,1,incorrect,1682
7,1c,speeded_recognition,24,foil,intermixed,N/A,correct,1418
7,1c,speeded_recognition,25,AC,intermixed,5,incorrect,1604
7,1c,speeded_recognition,26,BC,blocked,3,correct,958
7,1c,speeded_recognition,27,AB,intermixed,6,correct,1096
7,1c,speeded_recognition,28,AB,blocked,1,correct,1195
7,1c,speeded_recognition,29,AC,intermixed,4,correct,1411
7,1c,speeded_recognition,30,AC,blocked,1,incorrect,1079
7,1c,speeded_recognition,31,foil,intermixed,N/A,correct,1128
7,1c,speeded_recognition,32,BC,intermixed,5,correct,1113
7,1c,speeded_recognition,33,foil,intermixed,N/A,correct,1150
7,1c,speeded_recognition,34,AC,blocked,2,correct,1086
7,1c,speeded_recognition,35,foil,blocked,N/A,incorrect,1644
7,1c,speeded_recognition,36,AB,intermixed,5,correct,912
7,1c,speeded_recognition,37,BC,blocked,1,correct,1180
7,1c,speeded_recognition,38,AC,intermixed,4,incorrect,886
7,1c,speeded_recognition,39,foil,intermixed,N/A,correct,1201
7,1c,speeded_recognition,40,AB,blocked,1,incorrect,1179
7,1c,speeded_recognition,41,foil,blocked,N/A,correct,844
7,1c,speeded_recognition,42,AB,intermixed,4,correct,952
7,1c,speeded_recognition,43,AB,blocked,2,correct,889
7,1c,speeded_recognition,44,foil,intermixed,N/A,correct,1275
7,1c,speeded_recognition,45,AB,intermixed,5,correct,810
7,1c,speeded_recognition,46,foil,blocked,N/A,correct,1004
7,1c,speeded_recognition,47,BC,blocked,2,correct,1014
7,1c,speeded_recognition,48,AB,intermixed,6,correct,1092
7,1c,explicit_inference,1,AC,intermixed,5,correct,2847
7,1c,explicit_inference,2,AC,intermixed,6,correct,3755
7,1c,explicit_inference,3,AC,intermixed,4,correct,2805
7,1c,explicit_inference,4,AC,intermixed,6,incorrect,4038
7,1c,explicit_inference,5,AC,blocked,2,incorrect,2599
7,1c,explicit_inference,6,AC,blocked,1,correct,2862
7,1c,explicit_inference,7,AC,blocked,3,correct,1839
7,1c,explicit_inference,8,AC,blocked,2,incorrect,2109
7,1c,explicit_inference,9,AC,intermixed,5,correct,1814
7,1c,explicit_inference,10,AC,blocked,1,incorrect,1318
7,1c,explicit_inference,11,AC,intermixed,4,correct,1870
7,1c,explicit_inference,12,AC,blocked,3,correct,1518
7,1c,explicit_direct,1,BC,intermixed,6,correct,2502
7,1c,explicit_direct,2,AB,blocked,2,correct,1415
7,1c,explicit_direct,3,BC,blocked,3,correct,1168
7,1c,explicit_direct,4,AB,blocked,1,correct,4004
7,1c,explicit_direct,5,BC,intermixed,4,correct,1948
7,1c,explicit_direct,6,BC,intermixed,6,correct,2175
7,1c,explicit_direct,7,BC,blocked,1,correct,1368
7,1c,explicit_direct,8,AB,blocked,3,correct,2990
7,1c,explicit_direct,9,BC,blocked,1,correct,1531
7,1c,explicit_direct,10,AB,blocked,2,correct,1191
7,1c,explicit_direct,11,AB,blocked,3,correct,2200
7,1c,explicit_direct,12,BC,intermixed,5,correct,3503
7,1c,explicit_direct,13,AB,intermixed,4,correct,1808
7,1c,explicit_direct,14,AB,intermixed,6,correct,1134
7,1c,explicit_direct,15,AB,blocked,1,correct,1470
7,1c,explicit_direct,16,AB,intermixed,6,correct,1862
7,1c,explicit_direct,17,BC,intermixed,5,correct,1167
7,1c,explicit_direct,18,BC,intermixed,4,correct,1526
7,1c,explicit_direct,19,BC,blocked,2,correct,1952
7,1c,explicit_direct,20,BC,blocked,3,correct,1108
7,1c,explicit_direct,21,AB,intermixed,5,correct,1436
7,1c,explicit_direct,22,AB,intermixed,4,correct,902
7,1c,explicit_direct,23,AB,intermixed,5,correct,1190
7,1c,explicit_direct,24,BC,blocked,2,correct,1241
8,1c,speeded_recognition,1,AB,blocked,3,correct,2247
8,1c,speeded_recognition,2,AC,intermixed,5,correct,2341
8,1c,speeded_recognition,3,BC,blocked,3,correct,2029
8,1c,speeded_recognition,4,AC,intermixed,4,correct,1459
8,1c,speeded_recognition,5,foil,intermixed,N/A,correct,2083
8,1c,speeded_recognition,6,AC,blocked,1,correct,1198
8,1c,speeded_recognition,7,foil,intermixed,N/A,incorrect,976
8,1c,speeded_recognition,8,BC,blocked,3,correct,1327
8,1c,speeded_recognition,9,AC,intermixed,5,correct,1386
8,1c,speeded_recognition,10,BC,blocked,2,correct,1382
8,1c,speeded_recognition,11,AB,intermixed,6,correct,1283
8,1c,speeded_recognition,12,foil,blocked,N/A,incorrect,1298
8,1c,speeded_recognition,13,AC,blocked,3,incorrect,1338
8,1c,speeded_recognition,14,BC,intermixed,6,correct,1091
8,1c,speeded_recognition,15,foil,intermixed,N/A,correct,1356
8,1c,speeded_recognition,16,AC,intermixed,6,incorrect,1243
8,1c,speeded_recognition,17,AC,blocked,3,correct,1332
8,1c,speeded_recognition,18,AB,intermixed,4,correct,1142
8,1c,speeded_recognition,19,AB,blocked,2,correct,1052
8,1c,speeded_recognition,20,AB,intermixed,5,correct,1065
8,1c,speeded_recognition,21,AC,blocked,1,correct,1422
8,1c,speeded_recognition,22,BC,intermixed,6,correct,930
8,1c,speeded_recognition,23,foil,blocked,N/A,correct,997
8,1c,speeded_recognition,24,BC,intermixed,4,incorrect,1061
8,1c,speeded_recognition,25,foil,blocked,N/A,correct,1426
8,1c,speeded_recognition,26,AB,blocked,1,correct,1285
8,1c,speeded_recognition,27,BC,intermixed,5,correct,1111
8,1c,speeded_recognition,28,AB,blocked,2,correct,1485
8,1c,speeded_recognition,29,foil,intermixed,N/A,correct,1046
8,1c,speeded_recognition,30,BC,blocked,1,correct,892
8,1c,speeded_recognition,31,AC,intermixed,4,correct,1646
8,1c,speeded_recognition,32,BC,blocked,1,correct,856
8,1c,speeded_recognition,33,BC,intermixed,5,correct,984
8,1c,speeded_recognition,34,AB,blocked,1,correct,834
8,1c,speeded_recognition,35,AB,intermixed,5,correct,1151
8,1c,speeded_recognition,36,AB,blocked,3,incorrect,1163
8,1c,speeded_recognition,37,foil,intermixed,N/A,correct,1667
8,1c,speeded_recognition,38,AC,blocked,2,correct,1359
8,1c,speeded_recognition,39,foil,blocked,N/A,correct,1266
8,1c,speeded_recognition,40,AC,blocked,2,correct,855
8,1c,speeded_recognition,41,AB,intermixed,6,correct,1409
8,1c,speeded_recognition,42,foil,intermixed,N/A,correct,1364
8,1c,speeded_recognition,43,foil,blocked,N/A,correct,1344
8,1c,speeded_recognition,44,BC,intermixed,4,incorrect,983
8,1c,speeded_recognition,45,BC,blocked,2,correct,1023
8,1c,speeded_recognition,46,AC,intermixed,6,correct,1033
8,1c,speeded_recognition,47,foil,blocked,N/A,correct,1058
8,1c,speeded_recognition,48,AB,intermixed,4,correct,804
8,1c,explicit_inference,1,AC,blocked,1,correct,2017
8,1c,explicit_inference,2,AC,blocked,2,incorrect,3170
8,1c,explicit_inference,3,AC,blocked,3,correct,2840
8,1c,explicit_inference,4,AC,intermixed,5,correct,1969
8,1c,explicit_inference,5,AC,intermixed,6,correct,1880
8,1c,explicit_inference,6,AC,intermixed,4,correct,2265
8,1c,explicit_inference,7,AC,blocked,3,incorrect,4470
8,1c,explicit_inference,8,AC,intermixed,4,correct,2140
8,1c,explicit_inference,9,AC,blocked,2,correct,3689
8,1c,explicit_inference,10,AC,intermixed,5,correct,1776
8,1c,explicit_inference,11,AC,intermixed,6,correct,2011
8,1c,explicit_inference,12,AC,blocked,1,correct,3535
8,1c,explicit_direct,1,AB,intermixed,5,correct,1165
8,1c,explicit_direct,2,AB,intermixed,4,correct,1971
8,1c,explicit_direct,3,AB,intermixed,6,incorrect,1911
8,1c,explicit_direct,4,BC,blocked,3,incorrect,2704
8,1c,explicit_direct,5,BC,intermixed,6,correct,1691
8,1c,explicit_direct,6,AB,blocked,1,correct,1773
8,1c,explicit_direct,7,BC,intermixed,5,correct,1562
8,1c,explicit_direct,8,AB,blocked,3,correct,2077
8,1c,explicit_direct,9,AB,blocked,2,correct,2009
8,1c,explicit_direct,10,BC,blocked,1,incorrect,1872
8,1c,explicit_direct,11,BC,intermixed,6,correct,1919
8,1c,explicit_direct,12,BC,blocked,2,correct,1841
8,1c,explicit_direct,13,BC,intermixed,5,correct,1642
8,1c,explicit_direct,14,BC,intermixed,4,correct,1683
8,1c,explicit_direct,15,AB,blocked,2,correct,1421
8,1c,explicit_direct,16,AB,intermixed,4,correct,1617
8,1c,explicit_direct,17,AB,blocked,3,correct,2017
8,1c,explicit_direct,18,AB,intermixed,6,correct,2376
8,1c,explicit_direct,19,BC,intermixed,4,correct,1630
8,1c,explicit_direct,20,BC,blocked,1,correct,4014
8,1c,explicit_direct,21,AB,intermixed,5,correct,1831
8,1c,explicit_direct,22,AB,blocked,1,correct,1318
8,1c,explicit_direct,23,BC,blocked,3,correct,4056
8,1c,explicit_direct,24,BC,blocked,2,correct,1453
9,1c,speeded_recognition,1,AC,blocked,1,correct,894
9,1c,speeded_recognition,2,foil,intermixed,N/A,correct,1158
9,1c,speeded_recognition,3,AB,intermixed,4,correct,1137
9,1c,speeded_recognition,4,AC,blocked,3,correct,999
9,1c,speeded_recognition,5,BC,intermixed,5,correct,2338
9,1c,speeded_recognition,6,BC,blocked,3,correct,1981
9,1c,speeded_recognition,7,foil,intermixed,N/A,correct,1575
9,1c,speeded_recognition,8,AC,intermixed,5,correct,2012
9,1c,speeded_recognition,9,foil,blocked,N/A,correct,1406
9,1c,speeded_recognition,10,BC,blocked,2,correct,959
9,1c,speeded_recognition,11,AC,intermixed,5,incorrect,930
9,1c,speeded_recognition,12,foil,blocked,N/A,incorrect,1127
9,1c,speeded_recognition,13,BC,blocked,1,correct,1246
9,1c,speeded_recognition,14,AB,intermixed,5,correct,883
9,1c,speeded_recognition,15,foil,blocked,N/A,incorrect,934
9,1c,speeded_recognition,16,AB,intermixed,6,correct,940
9,1c,speeded_recognition,17,AC,blocked,2,correct,1173
9,1c,speeded_recognition,18,AB,intermixed,5,correct,828
9,1c,speeded_recognition,19,AB,blocked,1,correct,824
9,1c,speeded_recognition,20,BC,intermixed,6,correct,986
9,1c,speeded_recognition,21,foil,blocked,N/A,correct,1168
9,1c,speeded_recognition,22,AC,blocked,1,correct,1102
9,1c,speeded_recognition,23,foil,intermixed,N/A,correct,1360
9,1c,speeded_recognition,24,AB,intermixed,4,correct,867
9,1c,speeded_recognition,25,AB,blocked,3,correct,787
9,1c,speeded_recognition,26,AC,intermixed,6,correct,1012
9,1c,speeded_recognition,27,AC,blocked,3,correct,930
9,1c,speeded_recognition,28,AC,intermixed,4,correct,1104
9,1c,speeded_recognition,29,foil,blocked,N/A,correct,992
9,1c,speeded_recognition,30,BC,intermixed,4,incorrect,903
9,1c,speeded_recognition,31,BC,blocked,2,correct,1237
9,1c,speeded_recognition,32,foil,intermixed,N/A,incorrect,1021
9,1c,speeded_recognition,33,AC,intermixed,4,correct,1152
9,1c,speeded_recognition,34,foil,blocked,N/A,incorrect,966
9,1c,speeded_recognition,35,AC,blocked,2,correct,1118
9,1c,speeded_recognition,36,BC,intermixed,6,correct,1073
9,1c,speeded_recognition,37,AB,blocked,1,correct,1331
9,1c,speeded_recognition,38,foil,intermixed,N/A,correct,1869
9,1c,speeded_recognition,39,BC,blocked,1,correct,1700
9,1c,speeded_recognition,40,AC,intermixed,6,incorrect,1231
9,1c,speeded_recognition,41,AB,blocked,2,incorrect,1395
9,1c,speeded_recognition,42,BC,intermixed,5,correct,928
9,1c,speeded_recognition,43,AB,blocked,2,correct,2011
9,1c,speeded_recognition,44,BC,intermixed,4,incorrect,1567
9,1c,speeded_recognition,45,AB,blocked,3,correct,1177
9,1c,speeded_recognition,46,AB,intermixed,6,correct,1061
9,1c,speeded_recognition,47,foil,intermixed,N/A,correct,1226
9,1c,speeded_recognition,48,BC,blocked,3,incorrect,1198
9,1c,explicit_inference,1,AC,blocked,2,incorrect,6052
9,1c,explicit_inference,2,AC,blocked,3,incorrect,3958
9,1c,explicit_inference,3,AC,intermixed,5,correct,2049
9,1c,explicit_inference,4,AC,blocked,1,correct,5265
9,1c,explicit_inference,5,AC,intermixed,6,incorrect,3587
9,1c,explicit_inference,6,AC,blocked,1,correct,1637
9,1c,explicit_inference,7,AC,blocked,2,correct,3227
9,1c,explicit_inference,8,AC,intermixed,5,correct,3396
9,1c,explicit_inference,9,AC,intermixed,4,correct,1589
9,1c,explicit_inference,10,AC,intermixed,6,correct,2206
9,1c,explicit_inference,11,AC,blocked,3,correct,1597
9,1c,explicit_inference,12,AC,intermixed,4,correct,1238
9,1c,explicit_direct,1,BC,blocked,3,correct,2434
9,1c,explicit_direct,2,BC,blocked,2,correct,2484
9,1c,explicit_direct,3,BC,intermixed,5,correct,2930
9,1c,explicit_direct,4,BC,blocked,1,correct,1885
9,1c,explicit_direct,5,AB,blocked,3,correct,1463
9,1c,explicit_direct,6,AB,blocked,1,correct,1532
9,1c,explicit_direct,7,AB,blocked,2,correct,1402
9,1c,explicit_direct,8,AB,intermixed,4,correct,1245
9,1c,explicit_direct,9,AB,intermixed,6,correct,1014
9,1c,explicit_direct,10,AB,intermixed,4,correct,1266
9,1c,explicit_direct,11,AB,blocked,3,correct,1845
9,1c,explicit_direct,12,BC,blocked,1,correct,1330
9,1c,explicit_direct,13,AB,blocked,2,correct,1122
9,1c,explicit_direct,14,AB,intermixed,5,correct,1113
9,1c,explicit_direct,15,BC,intermixed,4,incorrect,1966
9,1c,explicit_direct,16,AB,blocked,1,correct,1208
9,1c,explicit_direct,17,BC,intermixed,6,correct,1511
9,1c,explicit_direct,18,AB,intermixed,5,incorrect,2769
9,1c,explicit_direct,19,AB,intermixed,6,correct,1723
9,1c,explicit_direct,20,BC,blocked,3,incorrect,1827
9,1c,explicit_direct,21,BC,intermixed,5,correct,3179
9,1c,explicit_direct,22,BC,blocked,2,correct,1607
9,1c,explicit_direct,23,BC,intermixed,6,correct,1522
9,1c,explicit_direct,24,BC,intermixed,4,correct,2090
10,1c,speeded_recognition,1,BC,intermixed,4,correct,1165
10,1c,speeded_recognition,2,AC,blocked,2,correct,1522
10,1c,speeded_recognition,3,foil,intermixed,N/A,correct,1787
10,1c,speeded_recognition,4,AC,intermixed,4,correct,1175
10,1c,speeded_recognition,5,AC,blocked,2,correct,1732
10,1c,speeded_recognition,6,BC,intermixed,5,correct,1331
10,1c,speeded_recognition,7,BC,blocked,1,correct,858
10,1c,speeded_recognition,8,AB,intermixed,6,correct,765
10,1c,speeded_recognition,9,foil,blocked,N/A,correct,1099
10,1c,speeded_recognition,10,AB,intermixed,6,correct,748
10,1c,speeded_recognition,11,foil,blocked,N/A,correct,906
10,1c,speeded_recognition,12,AC,blocked,1,correct,1107
10,1c,speeded_recognition,13,AC,intermixed,4,correct,1451
10,1c,speeded_recognition,14,foil,blocked,N/A,correct,1237
10,1c,speeded_recognition,15,BC,blocked,2,correct,948
10,1c,speeded_recognition,16,BC,intermixed,6,correct,1003
10,1c,speeded_recognition,17,BC,blocked,3,correct,780
10,1c,speeded_recognition,18,AB,intermixed,4,correct,1250
10,1c,speeded_recognition,19,foil,blocked,N/A,correct,1065
10,1c,speeded_recognition,20,AB,blocked,1,correct,874
10,1c,speeded_recognition,21,foil,intermixed,N/A,correct,1002
10,1c,speeded_recognition,22,AB,blocked,1,correct,1186
10,1c,speeded_recognition,23,AC,intermixed,5,correct,1236
10,1c,speeded_recognition,24,AB,blocked,2,correct,1296
10,1c,speeded_recognition,25,AB,intermixed,5,correct,1408
10,1c,speeded_recognition,26,BC,blocked,2,correct,946
10,1c,speeded_recognition,27,foil,blocked,N/A,correct,1055
10,1c,speeded_recognition,28,BC,intermixed,5,correct,1792
10,1c,speeded_recognition,29,AC,blocked,3,correct,982
10,1c,speeded_recognition,30,AC,intermixed,6,correct,1178
10,1c,speeded_recognition,31,foil,blocked,N/A,correct,987
10,1c,speeded_recognition,32,AC,intermixed,5,correct,993
10,1c,speeded_recognition,33,AC,blocked,1,correct,1107
10,1c,speeded_recognition,34,AC,intermixed,6,correct,1059
10,1c,speeded_recognition,35,foil,intermixed,N/A,correct,1141
10,1c,speeded_recognition,36,AC,blocked,3,correct,1072
10,1c,speeded_recognition,37,foil,intermixed,N/A,correct,1108
10,1c,speeded_recognition,38,BC,intermixed,4,incorrect,2098
10,1c,speeded_recognition,39,AB,blocked,2,correct,986
10,1c,speeded_recognition,40,BC,intermixed,6,correct,1132
10,1c,speeded_recognition,41,foil,intermixed,N/A,correct,1286
10,1c,speeded_recognition,42,BC,blocked,3,correct,1660
10,1c,speeded_recognition,43,AB,intermixed,4,correct,1531
10,1c,speeded_recognition,44,AB,blocked,3,correct,884
10,1c,speeded_recognition,45,foil,intermixed,N/A,correct,1202
10,1c,speeded_recognition,46,BC,blocked,1,correct,2133
10,1c,speeded_recognition,47,AB,intermixed,5,correct,794
10,1c,speeded_recognition,48,AB,blocked,3,correct,659
10,1c,explicit_inference,1,AC,blocked,3,correct,3285
10,1c,explicit_inference,2,AC,intermixed,6,correct,2791
10,1c,explicit_inference,3,AC,blocked,2,correct,3297
10,1c,explicit_inference,4,AC,blocked,1,correct,1982
10,1c,explicit_inference,5,AC,intermixed,4,correct,1767
10,1c,explicit_inference,6,AC,blocked,3,correct,1752
10,1c,explicit_inference,7,AC,intermixed,5,correct,3287
10,1c,explicit_inference,8,AC,intermixed,4,correct,2422
10,1c,explicit_inference,9,AC,intermixed,5,correct,2814
10,1c,explicit_inference,10,AC,blocked,1,correct,1997
10,1c,explicit_inference,11,AC,blocked,2,correct,1551
10,1c,explicit_inference,12,AC,intermixed,6,correct,1783
10,1c,explicit_direct,1,AB,blocked,2,correct,1686
10,1c,explicit_direct,2,BC,intermixed,4,correct,2305
10,1c,explicit_direct,3,BC,intermixed,6,correct,1287
10,1c,explicit_direct,4,BC,blocked,2,correct,1614
10,1c,explicit_direct,5,AB,intermixed,5,correct,1951
10,1c,explicit_direct,6,AB,blocked,1,correct,1151
10,1c,explicit_direct,7,BC,intermixed,5,correct,1359
10,1c,explicit_direct,8,AB,intermixed,6,correct,1623
10,1c,explicit_direct,9,AB,blocked,2,correct,2509
10,1c,explicit_direct,10,BC,intermixed,6,correct,3702
10,1c,explicit_direct,11,BC,intermixed,4,correct,1814
10,1c,explicit_direct,12,BC,blocked,3,correct,1287
10,1c,explicit_direct,13,AB,blocked,1,correct,950
10,1c,explicit_direct,14,AB,intermixed,4,correct,1095
10,1c,explicit_direct,15,BC,blocked,1,correct,1071
10,1c,explicit_direct,16,BC,blocked,3,correct,909
10,1c,explicit_direct,17,AB,intermixed,6,correct,1750
10,1c,explicit_direct,18,AB,blocked,3,correct,758
10,1c,explicit_direct,19,BC,intermixed,5,correct,1000
10,1c,explicit_direct,20,BC,blocked,1,correct,967
10,1c,explicit_direct,21,AB,intermixed,4,correct,1782
10,1c,explicit_direct,22,BC,blocked,2,correct,1231
10,1c,explicit_direct,23,AB,intermixed,5,correct,1425
10,1c,explicit_direct,24,AB,blocked,3,correct,1166
11,1c,speeded_recognition,1,AB,blocked,1,correct,1048
11,1c,speeded_recognition,2,AC,intermixed,4,correct,1097
11,1c,speeded_recognition,3,foil,intermixed,N/A,correct,1308
11,1c,speeded_recognition,4,AC,blocked,1,correct,1223
11,1c,speeded_recognition,5,BC,intermixed,4,correct,981
11,1c,speeded_recognition,6,AB,blocked,2,correct,939
11,1c,speeded_recognition,7,AB,intermixed,4,correct,735
11,1c,speeded_recognition,8,AB,blocked,3,incorrect,1128
11,1c,speeded_recognition,9,foil,intermixed,N/A,correct,1020
11,1c,speeded_recognition,10,foil,intermixed,N/A,correct,1008
11,1c,speeded_recognition,11,AC,blocked,2,correct,1400
11,1c,speeded_recognition,12,foil,blocked,N/A,correct,836
11,1c,speeded_recognition,13,AB,intermixed,5,correct,957
11,1c,speeded_recognition,14,AB,blocked,3,incorrect,923
11,1c,speeded_recognition,15,AC,intermixed,6,incorrect,969
11,1c,speeded_recognition,16,BC,blocked,3,correct,830
11,1c,speeded_recognition,17,AC,intermixed,5,correct,1512
11,1c,speeded_recognition,18,foil,blocked,N/A,correct,896
11,1c,speeded_recognition,19,AC,blocked,1,correct,1075
11,1c,speeded_recognition,20,foil,intermixed,N/A,correct,895
11,1c,speeded_recognition,21,BC,blocked,1,correct,774
11,1c,speeded_recognition,22,foil,intermixed,N/A,correct,839
11,1c,speeded_recognition,23,BC,intermixed,6,correct,1020
11,1c,speeded_recognition,24,foil,blocked,N/A,correct,738
11,1c,speeded_recognition,25,foil,blocked,N/A,correct,1065
11,1c,speeded_recognition,26,AB,intermixed,6,correct,1040
11,1c,speeded_recognition,27,foil,blocked,N/A,correct,986
11,1c,speeded_recognition,28,AC,intermixed,4,correct,771
11,1c,speeded_recognition,29,BC,blocked,3,correct,689
11,1c,speeded_recognition,30,BC,intermixed,4,incorrect,791
11,1c,speeded_recognition,31,AC,blocked,3,correct,912
11,1c,speeded_recognition,32,AB,intermixed,4,correct,691
11,1c,speeded_recognition,33,AC,blocked,2,correct,1197
11,1c,speeded_recognition,34,AC,intermixed,5,correct,1155
11,1c,speeded_recognition,35,BC,blocked,2,correct,1036
11,1c,speeded_recognition,36,BC,intermixed,6,correct,863
11,1c,speeded_recognition,37,BC,blocked,1,correct,698
11,1c,speeded_recognition,38,AC,intermixed,6,correct,1126
11,1c,speeded_recognition,39,BC,blocked,2,correct,712
11,1c,speeded_recognition,40,AB,intermixed,6,correct,796
11,1c,speeded_recognition,41,AB,blocked,1,correct,1023
11,1c,speeded_recognition,42,BC,intermixed,5,correct,881
11,1c,speeded_recognition,43,foil,intermixed,N/A,correct,915
11,1c,speeded_recognition,44,AB,blocked,2,incorrect,1131
11,1c,speeded_recognition,45,AB,intermixed,5,correct,743
11,1c,speeded_recognition,46,AC,blocked,3,correct,982
11,1c,speeded_recognition,47,BC,intermixed,5,correct,908
11,1c,speeded_recognition,48,foil,blocked,N/A,correct,927
11,1c,explicit_inference,1,AC,intermixed,5,correct,1751
11,1c,explicit_inference,2,AC,blocked,3,correct,1690
11,1c,explicit_inference,3,AC,intermixed,4,correct,1340
11,1c,explicit_inference,4,AC,blocked,1,correct,1265
11,1c,explicit_inference,5,AC,intermixed,6,correct,1448
11,1c,explicit_inference,6,AC,intermixed,5,correct,1563
11,1c,explicit_inference,7,AC,blocked,2,correct,1464
11,1c,explicit_inference,8,AC,blocked,3,incorrect,1736
11,1c,explicit_inference,9,AC,blocked,1,correct,1305
11,1c,explicit_inference,10,AC,blocked,2,correct,1732
11,1c,explicit_inference,11,AC,intermixed,4,incorrect,1508
11,1c,explicit_inference,12,AC,intermixed,6,correct,1313
11,1c,explicit_direct,1,AB,blocked,2,correct,1635
11,1c,explicit_direct,2,AB,intermixed,4,correct,1268
11,1c,explicit_direct,3,AB,intermixed,5,correct,1165
11,1c,explicit_direct,4,BC,blocked,1,correct,1116
11,1c,explicit_direct,5,AB,intermixed,4,correct,944
11,1c,explicit_direct,6,AB,blocked,3,correct,1387
11,1c,explicit_direct,7,BC,intermixed,5,correct,1277
11,1c,explicit_direct,8,AB,intermixed,6,correct,1322
11,1c,explicit_direct,9,AB,blocked,2,correct,1623
11,1c,explicit_direct,10,AB,intermixed,6,correct,1466
11,1c,explicit_direct,11,BC,blocked,3,correct,1134
11,1c,explicit_direct,12,BC,intermixed,5,correct,1277
11,1c,explicit_direct,13,BC,intermixed,4,correct,1636
11,1c,explicit_direct,14,AB,blocked,1,correct,1143
11,1c,explicit_direct,15,BC,blocked,3,correct,1454
11,1c,explicit_direct,16,BC,blocked,2,correct,1222
11,1c,explicit_direct,17,BC,intermixed,6,correct,1208
11,1c,explicit_direct,18,BC,intermixed,4,correct,1393
11,1c,explicit_direct,19,AB,blocked,1,correct,1012
11,1c,explicit_direct,20,AB,intermixed,5,correct,1018
11,1c,explicit_direct,21,AB,blocked,3,correct,1175
11,1c,explicit_direct,22,BC,intermixed,6,correct,1606
11,1c,explicit_direct,23,BC,blocked,2,correct,1179
11,1c,explicit_direct,24,BC,blocked,1,correct,1136
12,1c,speeded_recognition,1,AC,blocked,2,correct,1783
12,1c,speeded_recognition,2,AC,intermixed,4,correct,2784
12,1c,speeded_recognition,3,AB,blocked,2,correct,1264
12,1c,speeded_recognition,4,AB,intermixed,5,correct,1575
12,1c,speeded_recognition,5,AB,blocked,3,correct,1239
12,1c,speeded_recognition,6,foil,intermixed,N/A,correct,2254
12,1c,speeded_recognition,7,AC,intermixed,5,correct,1222
12,1c,speeded_recognition,8,BC,blocked,2,correct,887
12,1c,speeded_recognition,9,BC,intermixed,5,correct,1374
12,1c,speeded_recognition,10,AC,blocked,2,incorrect,1207
12,1c,speeded_recognition,11,AC,intermixed,4,incorrect,1279
12,1c,speeded_recognition,12,BC,blocked,1,correct,1095
12,1c,speeded_recognition,13,foil,blocked,N/A,incorrect,1383
12,1c,speeded_recognition,14,BC,intermixed,4,correct,1142
12,1c,speeded_recognition,15,foil,intermixed,N/A,correct,1134
12,1c,speeded_recognition,16,AC,blocked,1,correct,1549
12,1c,speeded_recognition,17,BC,intermixed,6,correct,1047
12,1c,speeded_recognition,18,foil,intermixed,N/A,correct,1591
12,1c,speeded_recognition,19,AC,blocked,3,correct,1646
12,1c,speeded_recognition,20,AB,intermixed,6,correct,1111
12,1c,speeded_recognition,21,AC,blocked,1,correct,1606
12,1c,speeded_recognition,22,AB,intermixed,6,correct,919
12,1c,speeded_recognition,23,foil,blocked,N/A,correct,1359
12,1c,speeded_recognition,24,AB,blocked,1,incorrect,1255
12,1c,speeded_recognition,25,BC,intermixed,6,correct,1327
12,1c,speeded_recognition,26,BC,blocked,2,correct,1231
12,1c,speeded_recognition,27,AB,intermixed,5,correct,2231
12,1c,speeded_recognition,28,foil,blocked,N/A,correct,2287
12,1c,speeded_recognition,29,foil,blocked,N/A,correct,2670
12,1c,speeded_recognition,30,AB,intermixed,4,correct,1913
12,1c,speeded_recognition,31,AC,blocked,3,incorrect,3400
12,1c,speeded_recognition,32,foil,intermixed,N/A,correct,1350
12,1c,speeded_recognition,33,AC,intermixed,6,correct,2438
12,1c,speeded_recognition,34,AB,blocked,3,correct,1348
12,1c,speeded_recognition,35,AB,intermixed,4,correct,1583
12,1c,speeded_recognition,36,BC,blocked,3,incorrect,2982
12,1c,speeded_recognition,37,BC,intermixed,4,correct,2414
12,1c,speeded_recognition,38,AB,blocked,1,incorrect,3352
12,1c,speeded_recognition,39,AC,intermixed,5,correct,1279
12,1c,speeded_recognition,40,BC,blocked,1,correct,2263
12,1c,speeded_recognition,41,foil,blocked,N/A,correct,2919
12,1c,speeded_recognition,42,BC,intermixed,5,correct,1838
12,1c,speeded_recognition,43,BC,blocked,3,correct,1207
12,1c,speeded_recognition,44,foil,intermixed,N/A,correct,1958
12,1c,speeded_recognition,45,AC,intermixed,6,correct,1623
12,1c,speeded_recognition,46,foil,blocked,N/A,correct,1831
12,1c,speeded_recognition,47,AB,blocked,2,correct,1536
12,1c,speeded_recognition,48,foil,intermixed,N/A,correct,2117
12,1c,explicit_inference,1,AC,intermixed,6,correct,5887
12,1c,explicit_inference,2,AC,intermixed,5,correct,6075
12,1c,explicit_inference,3,AC,intermixed,4,correct,1423
12,1c,explicit_inference,4,AC,blocked,3,incorrect,2737
12,1c,explicit_inference,5,AC,blocked,2,correct,1991
12,1c,explicit_inference,6,AC,intermixed,6,correct,2918
12,1c,explicit_inference,7,AC,blocked,3,correct,2786
12,1c,explicit_inference,8,AC,blocked,2,correct,2752
12,1c,explicit_inference,9,AC,intermixed,5,incorrect,1874
12,1c,explicit_inference,10,AC,blocked,1,incorrect,2185
12,1c,explicit_inference,11,AC,intermixed,4,correct,1592
12,1c,explicit_inference,12,AC,blocked,1,correct,2702
12,1c,explicit_direct,1,BC,intermixed,4,correct,3962
12,1c,explicit_direct,2,BC,intermixed,5,correct,1884
12,1c,explicit_direct,3,BC,blocked,3,correct,3978
12,1c,explicit_direct,4,BC,blocked,1,correct,1409
12,1c,explicit_direct,5,AB,blocked,3,correct,1218
12,1c,explicit_direct,6,AB,intermixed,5,correct,2017
12,1c,explicit_direct,7,BC,intermixed,6,correct,1225
12,1c,explicit_direct,8,BC,blocked,3,correct,2092
12,1c,explicit_direct,9,AB,intermixed,4,correct,1715
12,1c,explicit_direct,10,AB,intermixed,5,correct,1549
12,1c,explicit_direct,11,BC,blocked,2,correct,1199
12,1c,explicit_direct,12,AB,blocked,1,correct,1872
12,1c,explicit_direct,13,BC,intermixed,5,correct,1834
12,1c,explicit_direct,14,AB,intermixed,4,correct,1270
12,1c,explicit_direct,15,BC,blocked,1,correct,1485
12,1c,explicit_direct,16,BC,intermixed,6,correct,1091
12,1c,explicit_direct,17,AB,blocked,2,correct,1406
12,1c,explicit_direct,18,AB,blocked,1,incorrect,2185
12,1c,explicit_direct,19,AB,intermixed,6,correct,2037
12,1c,explicit_direct,20,AB,blocked,2,correct,1883
12,1c,explicit_direct,21,AB,intermixed,6,correct,1364
12,1c,explicit_direct,22,AB,blocked,3,correct,2298
12,1c,explicit_direct,23,BC,intermixed,4,correct,1496
12,1c,explicit_direct,24,BC,blocked,2,correct,1139
13,1c,speeded_recognition,1,BC,blocked,3,correct,999
13,1c,speeded_recognition,2,foil,blocked,N/A,correct,1432
13,1c,speeded_recognition,3,BC,intermixed,5,incorrect,2087
13,1c,speeded_recognition,4,foil,blocked,N/A,correct,1790
13,1c,speeded_recognition,5,AC,blocked,1,correct,2416
13,1c,speeded_recognition,6,BC,intermixed,5,correct,1615
13,1c,speeded_recognition,7,AC,blocked,3,correct,1712
13,1c,speeded_recognition,8,BC,intermixed,4,correct,1598
13,1c,speeded_recognition,9,foil,blocked,N/A,correct,1606
13,1c,speeded_recognition,10,AB,intermixed,6,correct,1319
13,1c,speeded_recognition,11,BC,blocked,1,correct,1695
13,1c,speeded_recognition,12,foil,intermixed,N/A,correct,2094
13,1c,speeded_recognition,13,AB,blocked,2,correct,1263
13,1c,speeded_recognition,14,AC,intermixed,6,incorrect,1615
13,1c,speeded_recognition,15,AB,blocked,1,correct,2118
13,1c,speeded_recognition,16,AB,intermixed,4,correct,1352
13,1c,speeded_recognition,17,AC,blocked,2,incorrect,2998
13,1c,speeded_recognition,18,foil,blocked,N/A,correct,1817
13,1c,speeded_recognition,19,AC,intermixed,4,correct,2397
13,1c,speeded_recognition,20,foil,intermixed,N/A,correct,2528
13,1c,speeded_recognition,21,AB,blocked,2,correct,1366
13,1c,speeded_recognition,22,AC,intermixed,6,incorrect,1318
13,1c,speeded_recognition,23,AB,blocked,3,correct,2279
13,1c,speeded_recognition,24,AB,intermixed,4,correct,1184
13,1c,speeded_recognition,25,foil,intermixed,N/A,incorrect,2800
13,1c,speeded_recognition,26,foil,blocked,N/A,incorrect,1551
13,1c,speeded_recognition,27,AC,intermixed,4,correct,1742
13,1c,speeded_recognition,28,AB,blocked,3,correct,1447
13,1c,speeded_recognition,29,AB,intermixed,5,correct,1246
13,1c,speeded_recognition,30,BC,blocked,1,correct,1446
13,1c,speeded_recognition,31,BC,intermixed,6,correct,1887
13,1c,speeded_recognition,32,AC,blocked,3,correct,1767
13,1c,speeded_recognition,33,AC,intermixed,5,correct,1455
13,1c,speeded_recognition,34,BC,blocked,2,correct,1184
13,1c,speeded_recognition,35,AB,intermixed,6,correct,2398
13,1c,speeded_recognition,36,AC,blocked,2,correct,3175
13,1c,speeded_recognition,37,AC,intermixed,5,correct,1750
13,1c,speeded_recognition,38,foil,intermixed,N/A,correct,2235
13,1c,speeded_recognition,39,BC,blocked,3,correct,1863
13,1c,speeded_recognition,40,BC,intermixed,4,incorrect,2342
13,1c,speeded_recognition,41,AB,blocked,1,correct,1117
13,1c,speeded_recognition,42,foil,intermixed,N/A,correct,1783
13,1c,speeded_recognition,43,BC,intermixed,6,correct,1495
13,1c,speeded_recognition,44,foil,blocked,N/A,correct,2174
13,1c,speeded_recognition,45,AB,intermixed,5,correct,1741
13,1c,speeded_recognition,46,BC,blocked,2,correct,1687
13,1c,speeded_recognition,47,foil,intermixed,N/A,correct,2422
13,1c,speeded_recognition,48,AC,blocked,1,correct,2759
13,1c,explicit_inference,1,AC,blocked,2,correct,5164
13,1c,explicit_inference,2,AC,intermixed,4,incorrect,1
13,1c,explicit_inference,3,AC,blocked,3,correct,3882
13,1c,explicit_inference,4,AC,blocked,1,correct,3367
13,1c,explicit_inference,5,AC,intermixed,6,correct,3097
13,1c,explicit_inference,6,AC,blocked,2,correct,3145
13,1c,explicit_inference,7,AC,intermixed,5,correct,3450
13,1c,explicit_inference,8,AC,intermixed,4,correct,2877
13,1c,explicit_inference,9,AC,intermixed,6,correct,4876
13,1c,explicit_inference,10,AC,blocked,1,correct,2429
13,1c,explicit_inference,11,AC,intermixed,5,correct,3123
13,1c,explicit_inference,12,AC,blocked,3,correct,2536
13,1c,explicit_direct,1,BC,blocked,2,correct,4493
13,1c,explicit_direct,2,AB,blocked,3,N/A,N/A
13,1c,explicit_direct,3,BC,intermixed,6,correct,3491
13,1c,explicit_direct,4,AB,blocked,2,correct,2921
13,1c,explicit_direct,5,BC,intermixed,5,correct,1773
13,1c,explicit_direct,6,BC,blocked,3,correct,3331
13,1c,explicit_direct,7,BC,intermixed,6,correct,1908
13,1c,explicit_direct,8,BC,blocked,1,correct,1453
13,1c,explicit_direct,9,AB,blocked,2,correct,1347
13,1c,explicit_direct,10,AB,intermixed,6,correct,2366
13,1c,explicit_direct,11,BC,intermixed,5,correct,1534
13,1c,explicit_direct,12,BC,blocked,1,correct,2589
13,1c,explicit_direct,13,AB,intermixed,6,correct,1935
13,1c,explicit_direct,14,BC,intermixed,4,correct,1723
13,1c,explicit_direct,15,AB,intermixed,5,correct,1690
13,1c,explicit_direct,16,AB,blocked,3,correct,3083
13,1c,explicit_direct,17,AB,intermixed,4,correct,1400
13,1c,explicit_direct,18,BC,blocked,3,correct,1531
13,1c,explicit_direct,19,BC,intermixed,4,correct,2234
13,1c,explicit_direct,20,AB,blocked,1,correct,1436
13,1c,explicit_direct,21,BC,blocked,2,incorrect,1494
13,1c,explicit_direct,22,AB,blocked,1,correct,1119
13,1c,explicit_direct,23,AB,intermixed,5,correct,1173
13,1c,explicit_direct,24,AB,intermixed,4,correct,2614
14,1c,speeded_recognition,1,AC,blocked,1,correct,2514
14,1c,speeded_recognition,2,foil,blocked,N/A,correct,1965
14,1c,speeded_recognition,3,BC,intermixed,4,correct,1304
14,1c,speeded_recognition,4,foil,intermixed,N/A,correct,2246
14,1c,speeded_recognition,5,BC,blocked,2,correct,1695
14,1c,speeded_recognition,6,AC,intermixed,6,correct,1965
14,1c,speeded_recognition,7,BC,blocked,3,correct,1674
14,1c,speeded_recognition,8,AC,intermixed,4,correct,2201
14,1c,speeded_recognition,9,foil,blocked,N/A,correct,1656
14,1c,speeded_recognition,10,AC,intermixed,5,correct,2368
14,1c,speeded_recognition,11,AC,blocked,3,correct,2222
14,1c,speeded_recognition,12,foil,intermixed,N/A,correct,2063
14,1c,speeded_recognition,13,AB,intermixed,5,correct,1499
14,1c,speeded_recognition,14,foil,blocked,N/A,correct,2369
14,1c,speeded_recognition,15,BC,blocked,1,correct,1560
14,1c,speeded_recognition,16,AB,intermixed,6,correct,2715
14,1c,speeded_recognition,17,BC,blocked,3,correct,1569
14,1c,speeded_recognition,18,foil,blocked,N/A,correct,1551
14,1c,speeded_recognition,19,AB,intermixed,5,correct,1550
14,1c,speeded_recognition,20,foil,intermixed,N/A,correct,2166
14,1c,speeded_recognition,21,BC,blocked,2,correct,2626
14,1c,speeded_recognition,22,foil,intermixed,N/A,correct,1660
14,1c,speeded_recognition,23,BC,intermixed,5,incorrect,2771
14,1c,speeded_recognition,24,AB,blocked,2,correct,1223
14,1c,speeded_recognition,25,foil,intermixed,N/A,correct,2207
14,1c,speeded_recognition,26,AC,blocked,3,correct,2010
14,1c,speeded_recognition,27,BC,intermixed,6,correct,2802
14,1c,speeded_recognition,28,AB,blocked,3,incorrect,2031
14,1c,speeded_recognition,29,AB,intermixed,4,incorrect,2533
14,1c,speeded_recognition,30,foil,intermixed,N/A,correct,2167
14,1c,speeded_recognition,31,AB,blocked,1,incorrect,1409
14,1c,speeded_recognition,32,AC,intermixed,5,correct,1773
14,1c,speeded_recognition,33,AB,blocked,3,incorrect,3126
14,1c,speeded_recognition,34,BC,intermixed,4,correct,1285
14,1c,speeded_recognition,35,AC,blocked,2,incorrect,1491
14,1c,speeded_recognition,36,AC,intermixed,4,correct,1420
14,1c,speeded_recognition,37,AC,blocked,1,correct,1132
14,1c,speeded_recognition,38,foil,blocked,N/A,correct,1553
14,1c,speeded_recognition,39,BC,intermixed,6,correct,2691
14,1c,speeded_recognition,40,foil,blocked,N/A,correct,1252
14,1c,speeded_recognition,41,AB,intermixed,6,correct,1747
14,1c,speeded_recognition,42,AB,blocked,2,correct,1639
14,1c,speeded_recognition,43,BC,intermixed,5,incorrect,1756
14,1c,speeded_recognition,44,BC,blocked,1,correct,1341
14,1c,speeded_recognition,45,AB,intermixed,4,incorrect,1641
14,1c,speeded_recognition,46,AC,blocked,2,incorrect,1281
14,1c,speeded_recognition,47,AC,intermixed,6,correct,1593
14,1c,speeded_recognition,48,AB,blocked,1,incorrect,1643
14,1c,explicit_inference,1,AC,intermixed,6,correct,4646
14,1c,explicit_inference,2,AC,blocked,1,correct,3742
14,1c,explicit_inference,3,AC,intermixed,4,correct,5413
14,1c,explicit_inference,4,AC,blocked,2,correct,2032
14,1c,explicit_inference,5,AC,intermixed,5,incorrect,3386
14,1c,explicit_inference,6,AC,blocked,1,incorrect,4295
14,1c,explicit_inference,7,AC,blocked,3,correct,2334
14,1c,explicit_inference,8,AC,intermixed,5,incorrect,2311
14,1c,explicit_inference,9,AC,intermixed,4,incorrect,1718
14,1c,explicit_inference,10,AC,blocked,3,incorrect,6776
14,1c,explicit_inference,11,AC,intermixed,6,correct,2078
14,1c,explicit_inference,12,AC,blocked,2,correct,1759
14,1c,explicit_direct,1,AB,intermixed,5,correct,1958
14,1c,explicit_direct,2,BC,blocked,1,correct,1663
14,1c,explicit_direct,3,BC,blocked,3,correct,1846
14,1c,explicit_direct,4,BC,blocked,2,correct,2918
14,1c,explicit_direct,5,BC,intermixed,5,incorrect,2079
14,1c,explicit_direct,6,AB,intermixed,6,correct,1934
14,1c,explicit_direct,7,BC,blocked,2,correct,2063
14,1c,explicit_direct,8,AB,intermixed,4,correct,3005
14,1c,explicit_direct,9,AB,blocked,3,correct,2165
14,1c,explicit_direct,10,BC,intermixed,6,correct,3032
14,1c,explicit_direct,11,AB,blocked,2,correct,1585
14,1c,explicit_direct,12,BC,blocked,3,correct,2191
14,1c,explicit_direct,13,AB,blocked,1,incorrect,3638
14,1c,explicit_direct,14,BC,intermixed,4,correct,3768
14,1c,explicit_direct,15,BC,blocked,1,correct,1496
14,1c,explicit_direct,16,AB,intermixed,4,correct,3206
14,1c,explicit_direct,17,AB,intermixed,5,correct,2005
14,1c,explicit_direct,18,BC,intermixed,4,correct,2335
14,1c,explicit_direct,19,AB,blocked,2,correct,2031
14,1c,explicit_direct,20,AB,blocked,3,correct,2934
14,1c,explicit_direct,21,BC,intermixed,6,correct,2342
14,1c,explicit_direct,22,BC,intermixed,5,incorrect,2045
14,1c,explicit_direct,23,AB,blocked,1,correct,3118
14,1c,explicit_direct,24,AB,intermixed,6,correct,1935
15,1c,speeded_recognition,1,AC,blocked,3,correct,1319
15,1c,speeded_recognition,2,BC,intermixed,6,correct,949
15,1c,speeded_recognition,3,BC,blocked,1,incorrect,1092
15,1c,speeded_recognition,4,AC,intermixed,6,correct,1228
15,1c,speeded_recognition,5,BC,blocked,3,correct,843
15,1c,speeded_recognition,6,AB,intermixed,5,incorrect,1577
15,1c,speeded_recognition,7,foil,intermixed,N/A,correct,1181
15,1c,speeded_recognition,8,BC,blocked,1,incorrect,1414
15,1c,speeded_recognition,9,AB,intermixed,4,correct,1186
15,1c,speeded_recognition,10,AB,blocked,2,correct,1144
15,1c,speeded_recognition,11,BC,intermixed,4,correct,1040
15,1c,speeded_recognition,12,BC,blocked,2,correct,1610
15,1c,speeded_recognition,13,AC,intermixed,5,correct,1125
15,1c,speeded_recognition,14,BC,blocked,3,correct,1578
15,1c,speeded_recognition,15,foil,intermixed,N/A,correct,1346
15,1c,speeded_recognition,16,AC,blocked,1,correct,1594
15,1c,speeded_recognition,17,foil,intermixed,N/A,correct,1528
15,1c,speeded_recognition,18,AC,intermixed,4,incorrect,1091
15,1c,speeded_recognition,19,AB,blocked,3,incorrect,1602
15,1c,speeded_recognition,20,foil,blocked,N/A,correct,1886
15,1c,speeded_recognition,21,AC,intermixed,6,correct,1568
15,1c,speeded_recognition,22,AC,blocked,2,correct,1088
15,1c,speeded_recognition,23,foil,blocked,N/A,correct,1199
15,1c,speeded_recognition,24,BC,intermixed,6,correct,1185
15,1c,speeded_recognition,25,AC,blocked,3,correct,1090
15,1c,speeded_recognition,26,AC,intermixed,5,correct,1454
15,1c,speeded_recognition,27,AB,blocked,3,incorrect,1216
15,1c,speeded_recognition,28,foil,blocked,N/A,correct,1029
15,1c,speeded_recognition,29,BC,intermixed,5,correct,1276
15,1c,speeded_recognition,30,foil,intermixed,N/A,correct,1425
15,1c,speeded_recognition,31,AB,blocked,1,correct,1390
15,1c,speeded_recognition,32,foil,blocked,N/A,correct,1046
15,1c,speeded_recognition,33,AB,blocked,2,correct,960
15,1c,speeded_recognition,34,AB,intermixed,6,correct,845
15,1c,speeded_recognition,35,AC,blocked,2,correct,2169
15,1c,speeded_recognition,36,AB,intermixed,5,correct,1622
15,1c,speeded_recognition,37,foil,intermixed,N/A,correct,1315
15,1c,speeded_recognition,38,AB,blocked,1,correct,971
15,1c,speeded_recognition,39,AC,intermixed,4,correct,1676
15,1c,speeded_recognition,40,AC,blocked,1,correct,1691
15,1c,speeded_recognition,41,AB,intermixed,4,correct,1201
15,1c,speeded_recognition,42,foil,intermixed,N/A,correct,1050
15,1c,speeded_recognition,43,BC,intermixed,5,correct,1073
15,1c,speeded_recognition,44,foil,blocked,N/A,correct,1974
15,1c,speeded_recognition,45,AB,intermixed,6,correct,1137
15,1c,speeded_recognition,46,BC,blocked,2,correct,1128
15,1c,speeded_recognition,47,foil,blocked,N/A,correct,1008
15,1c,speeded_recognition,48,BC,intermixed,4,correct,1059
15,1c,explicit_inference,1,AC,intermixed,5,incorrect,2039
15,1c,explicit_inference,2,AC,blocked,1,correct,2910
15,1c,explicit_inference,3,AC,intermixed,6,correct,2718
15,1c,explicit_inference,4,AC,blocked,2,correct,1767
15,1c,explicit_inference,5,AC,blocked,3,correct,3150
15,1c,explicit_inference,6,AC,intermixed,4,correct,2486
15,1c,explicit_inference,7,AC,intermixed,6,correct,2470
15,1c,explicit_inference,8,AC,intermixed,5,correct,1830
15,1c,explicit_inference,9,AC,intermixed,4,correct,2229
15,1c,explicit_inference,10,AC,blocked,3,correct,2061
15,1c,explicit_inference,11,AC,blocked,2,correct,1853
15,1c,explicit_inference,12,AC,blocked,1,correct,1781
15,1c,explicit_direct,1,BC,blocked,1,correct,1808
15,1c,explicit_direct,2,BC,intermixed,5,correct,1630
15,1c,explicit_direct,3,AB,blocked,2,correct,1334
15,1c,explicit_direct,4,BC,intermixed,4,correct,1238
15,1c,explicit_direct,5,BC,blocked,1,correct,1295
15,1c,explicit_direct,6,BC,blocked,2,correct,1357
15,1c,explicit_direct,7,AB,blocked,3,correct,1648
15,1c,explicit_direct,8,BC,blocked,2,correct,1295
15,1c,explicit_direct,9,AB,blocked,3,correct,1352
15,1c,explicit_direct,10,BC,intermixed,4,correct,1486
15,1c,explicit_direct,11,AB,intermixed,6,correct,1165
15,1c,explicit_direct,12,AB,intermixed,5,correct,1215
15,1c,explicit_direct,13,AB,blocked,2,correct,1222
15,1c,explicit_direct,14,BC,blocked,3,correct,2502
15,1c,explicit_direct,15,AB,intermixed,5,correct,1150
15,1c,explicit_direct,16,AB,blocked,1,correct,1367
15,1c,explicit_direct,17,AB,intermixed,4,correct,1245
15,1c,explicit_direct,18,BC,intermixed,6,correct,1319
15,1c,explicit_direct,19,AB,blocked,1,correct,1135
15,1c,explicit_direct,20,AB,intermixed,4,correct,1453
15,1c,explicit_direct,21,BC,blocked,3,correct,1102
15,1c,explicit_direct,22,BC,intermixed,6,correct,1229
15,1c,explicit_direct,23,BC,intermixed,5,correct,1104
15,1c,explicit_direct,24,AB,intermixed,6,correct,1133
16,1c,speeded_recognition,1,AC,intermixed,5,correct,1005
16,1c,speeded_recognition,2,BC,blocked,1,correct,1318
16,1c,speeded_recognition,3,foil,intermixed,N/A,correct,1565
16,1c,speeded_recognition,4,AB,intermixed,5,correct,1018
16,1c,speeded_recognition,5,foil,blocked,N/A,correct,1482
16,1c,speeded_recognition,6,BC,blocked,2,correct,1051
16,1c,speeded_recognition,7,foil,blocked,N/A,correct,1296
16,1c,speeded_recognition,8,AC,intermixed,4,correct,1467
16,1c,speeded_recognition,9,foil,blocked,N/A,correct,1396
16,1c,speeded_recognition,10,AB,blocked,3,correct,1607
16,1c,speeded_recognition,11,foil,intermixed,N/A,correct,1470
16,1c,speeded_recognition,12,AC,intermixed,4,incorrect,1038
16,1c,speeded_recognition,13,foil,blocked,N/A,correct,1406
16,1c,speeded_recognition,14,BC,blocked,2,correct,939
16,1c,speeded_recognition,15,AC,intermixed,6,incorrect,1696
16,1c,speeded_recognition,16,AC,blocked,3,correct,1098
16,1c,speeded_recognition,17,AB,intermixed,5,correct,815
16,1c,speeded_recognition,18,AC,blocked,3,correct,982
16,1c,speeded_recognition,19,BC,intermixed,4,incorrect,1348
16,1c,speeded_recognition,20,AB,blocked,3,correct,1146
16,1c,speeded_recognition,21,BC,intermixed,4,incorrect,1154
16,1c,speeded_recognition,22,AB,blocked,2,correct,953
16,1c,speeded_recognition,23,AB,intermixed,6,correct,1195
16,1c,speeded_recognition,24,AC,blocked,1,correct,929
16,1c,speeded_recognition,25,AB,intermixed,6,correct,862
16,1c,speeded_recognition,26,foil,intermixed,N/A,correct,1146
16,1c,speeded_recognition,27,AB,blocked,1,correct,1095
16,1c,speeded_recognition,28,foil,intermixed,N/A,correct,1067
16,1c,speeded_recognition,29,BC,intermixed,6,incorrect,1553
16,1c,speeded_recognition,30,AC,blocked,2,correct,1133
16,1c,speeded_recognition,31,BC,intermixed,6,correct,1967
16,1c,speeded_recognition,32,BC,blocked,3,incorrect,1076
16,1c,speeded_recognition,33,foil,intermixed,N/A,correct,1283
16,1c,speeded_recognition,34,BC,intermixed,5,correct,1159
16,1c,speeded_recognition,35,AC,blocked,2,correct,1126
16,1c,speeded_recognition,36,BC,intermixed,5,correct,939
16,1c,speeded_recognition,37,BC,blocked,1,correct,1318
16,1c,speeded_recognition,38,foil,blocked,N/A,correct,1018
16,1c,speeded_recognition,39,AB,intermixed,4,correct,1055
16,1c,speeded_recognition,40,AB,blocked,1,correct,1636
16,1c,speeded_recognition,41,AC,intermixed,6,correct,2018
16,1c,speeded_recognition,42,AC,blocked,1,correct,1215
16,1c,speeded_recognition,43,foil,blocked,N/A,correct,1174
16,1c,speeded_recognition,44,AC,intermixed,5,correct,1207
16,1c,speeded_recognition,45,AB,blocked,2,correct,1105
16,1c,speeded_recognition,46,AB,intermixed,4,correct,881
16,1c,speeded_recognition,47,foil,intermixed,N/A,correct,1000
16,1c,speeded_recognition,48,BC,blocked,3,correct,963
16,1c,explicit_inference,1,AC,intermixed,5,incorrect,5547
16,1c,explicit_inference,2,AC,blocked,3,incorrect,3899
16,1c,explicit_inference,3,AC,intermixed,4,correct,4171
16,1c,explicit_inference,4,AC,intermixed,6,correct,2028
16,1c,explicit_inference,5,AC,intermixed,4,correct,3309
16,1c,explicit_inference,6,AC,blocked,1,incorrect,3351
16,1c,explicit_inference,7,AC,blocked,2,correct,4085
16,1c,explicit_inference,8,AC,intermixed,6,correct,3651
16,1c,explicit_inference,9,AC,blocked,2,correct,3410
16,1c,explicit_inference,10,AC,blocked,1,correct,3299
16,1c,explicit_inference,11,AC,blocked,3,correct,2910
16,1c,explicit_inference,12,AC,intermixed,5,correct,3820
16,1c,explicit_direct,1,AB,intermixed,4,correct,3296
16,1c,explicit_direct,2,AB,intermixed,5,correct,3463
16,1c,explicit_direct,3,BC,blocked,1,correct,2278
16,1c,explicit_direct,4,BC,blocked,3,correct,1393
16,1c,explicit_direct,5,BC,intermixed,4,correct,3616
16,1c,explicit_direct,6,BC,blocked,2,correct,2004
16,1c,explicit_direct,7,BC,intermixed,5,correct,1800
16,1c,explicit_direct,8,AB,intermixed,6,correct,1080
16,1c,explicit_direct,9,BC,blocked,3,correct,1363
16,1c,explicit_direct,10,AB,blocked,1,correct,1105
16,1c,explicit_direct,11,AB,blocked,3,correct,1145
16,1c,explicit_direct,12,BC,blocked,1,correct,1279
16,1c,explicit_direct,13,BC,intermixed,6,correct,2991
16,1c,explicit_direct,14,BC,intermixed,4,correct,3311
16,1c,explicit_direct,15,BC,blocked,2,correct,1848
16,1c,explicit_direct,16,AB,blocked,3,correct,1773
16,1c,explicit_direct,17,AB,blocked,2,correct,961
16,1c,explicit_direct,18,BC,intermixed,5,correct,1412
16,1c,explicit_direct,19,AB,blocked,2,correct,984
16,1c,explicit_direct,20,AB,intermixed,4,correct,1089
16,1c,explicit_direct,21,BC,intermixed,6,correct,1346
16,1c,explicit_direct,22,AB,blocked,1,correct,951
16,1c,explicit_direct,23,AB,intermixed,5,correct,848
16,1c,explicit_direct,24,AB,intermixed,6,correct,1188
17,1c,speeded_recognition,1,BC,intermixed,4,correct,1047
17,1c,speeded_recognition,2,AC,blocked,3,incorrect,1519
17,1c,speeded_recognition,3,foil,intermixed,N/A,correct,1664
17,1c,speeded_recognition,4,AC,blocked,1,correct,1287
17,1c,speeded_recognition,5,AB,intermixed,5,correct,1032
17,1c,speeded_recognition,6,foil,blocked,N/A,correct,1040
17,1c,speeded_recognition,7,AC,blocked,3,correct,1264
17,1c,speeded_recognition,8,BC,intermixed,6,correct,1088
17,1c,speeded_recognition,9,AB,blocked,3,correct,1487
17,1c,speeded_recognition,10,BC,intermixed,5,correct,1239
17,1c,speeded_recognition,11,AC,blocked,1,incorrect,998
17,1c,speeded_recognition,12,AC,intermixed,5,correct,2040
17,1c,speeded_recognition,13,BC,blocked,2,correct,1192
17,1c,speeded_recognition,14,AC,intermixed,4,incorrect,991
17,1c,speeded_recognition,15,foil,blocked,N/A,correct,1247
17,1c,speeded_recognition,16,BC,blocked,2,correct,1032
17,1c,speeded_recognition,17,AC,intermixed,6,incorrect,1079
17,1c,speeded_recognition,18,BC,blocked,3,correct,1215
17,1c,speeded_recognition,19,foil,blocked,N/A,incorrect,1047
17,1c,speeded_recognition,20,AB,blocked,1,correct,1007
17,1c,speeded_recognition,21,AC,intermixed,5,incorrect,1671
17,1c,speeded_recognition,22,AC,blocked,2,incorrect,999
17,1c,speeded_recognition,23,AB,intermixed,6,correct,1031
17,1c,speeded_recognition,24,foil,blocked,N/A,correct,887
17,1c,speeded_recognition,25,AC,intermixed,6,incorrect,960
17,1c,speeded_recognition,26,BC,blocked,3,correct,806
17,1c,speeded_recognition,27,foil,intermixed,N/A,incorrect,1200
17,1c,speeded_recognition,28,BC,intermixed,6,correct,1016
17,1c,speeded_recognition,29,BC,blocked,1,correct,895
17,1c,speeded_recognition,30,AC,intermixed,4,incorrect,943
17,1c,speeded_recognition,31,AB,blocked,2,incorrect,934
17,1c,speeded_recognition,32,AB,intermixed,6,correct,975
17,1c,speeded_recognition,33,AC,blocked,2,correct,992
17,1c,speeded_recognition,34,BC,intermixed,5,correct,1335
17,1c,speeded_recognition,35,foil,intermixed,N/A,correct,1176
17,1c,speeded_recognition,36,AB,blocked,2,correct,1048
17,1c,speeded_recognition,37,AB,intermixed,4,correct,1160
17,1c,speeded_recognition,38,foil,blocked,N/A,correct,967
17,1c,speeded_recognition,39,BC,blocked,1,correct,800
17,1c,speeded_recognition,40,foil,intermixed,N/A,correct,831
17,1c,speeded_recognition,41,AB,intermixed,5,correct,784
17,1c,speeded_recognition,42,AB,blocked,3,correct,776
17,1c,speeded_recognition,43,AB,intermixed,4,correct,798
17,1c,speeded_recognition,44,foil,intermixed,N/A,incorrect,1024
17,1c,speeded_recognition,45,foil,blocked,N/A,correct,967
17,1c,speeded_recognition,46,BC,intermixed,4,correct,839
17,1c,speeded_recognition,47,AB,blocked,1,correct,999
17,1c,speeded_recognition,48,foil,intermixed,N/A,correct,1223
17,1c,explicit_inference,1,AC,intermixed,6,incorrect,4519
17,1c,explicit_inference,2,AC,intermixed,4,correct,2830
17,1c,explicit_inference,3,AC,intermixed,5,incorrect,2258
17,1c,explicit_inference,4,AC,intermixed,6,correct,1652
17,1c,explicit_inference,5,AC,intermixed,5,correct,2830
17,1c,explicit_inference,6,AC,blocked,1,correct,2312
17,1c,explicit_inference,7,AC,blocked,2,correct,3284
17,1c,explicit_inference,8,AC,blocked,3,incorrect,3998
17,1c,explicit_inference,9,AC,blocked,1,incorrect,2468
17,1c,explicit_inference,10,AC,blocked,2,incorrect,1778
17,1c,explicit_inference,11,AC,blocked,3,correct,1957
17,1c,explicit_inference,12,AC,intermixed,4,correct,3238
17,1c,explicit_direct,1,AB,blocked,2,correct,2986
17,1c,explicit_direct,2,AB,blocked,3,correct,1191
17,1c,explicit_direct,3,BC,blocked,1,correct,1318
17,1c,explicit_direct,4,BC,intermixed,6,correct,1927
17,1c,explicit_direct,5,AB,intermixed,5,correct,1089
17,1c,explicit_direct,6,AB,intermixed,4,correct,1513
17,1c,explicit_direct,7,AB,blocked,1,correct,1378
17,1c,explicit_direct,8,BC,blocked,3,correct,1283
17,1c,explicit_direct,9,AB,intermixed,6,incorrect,1395
17,1c,explicit_direct,10,BC,intermixed,5,correct,1480
17,1c,explicit_direct,11,AB,blocked,3,correct,1378
17,1c,explicit_direct,12,BC,blocked,2,correct,1128
17,1c,explicit_direct,13,BC,blocked,1,correct,1575
17,1c,explicit_direct,14,BC,intermixed,4,correct,1182
17,1c,explicit_direct,15,BC,intermixed,6,correct,1950
17,1c,explicit_direct,16,AB,intermixed,4,correct,4420
17,1c,explicit_direct,17,AB,intermixed,6,correct,1247
17,1c,explicit_direct,18,BC,blocked,2,correct,1472
17,1c,explicit_direct,19,BC,intermixed,5,correct,1301
17,1c,explicit_direct,20,AB,blocked,1,correct,1848
17,1c,explicit_direct,21,BC,blocked,3,correct,1144
17,1c,explicit_direct,22,AB,intermixed,5,correct,1064
17,1c,explicit_direct,23,BC,intermixed,4,incorrect,1111
17,1c,explicit_direct,24,AB,blocked,2,correct,1811
18,1c,speeded_recognition,1,AB,blocked,1,correct,922
18,1c,speeded_recognition,2,foil,blocked,N/A,correct,985
18,1c,speeded_recognition,3,AB,intermixed,4,correct,1181
18,1c,speeded_recognition,4,BC,blocked,1,correct,920
18,1c,speeded_recognition,5,AB,intermixed,5,correct,1104
18,1c,speeded_recognition,6,AC,blocked,1,correct,1042
18,1c,speeded_recognition,7,AC,intermixed,4,incorrect,1081
18,1c,speeded_recognition,8,foil,blocked,N/A,correct,1251
18,1c,speeded_recognition,9,BC,blocked,3,correct,965
18,1c,speeded_recognition,10,foil,intermixed,N/A,correct,1650
18,1c,speeded_recognition,11,AC,blocked,2,correct,1197
18,1c,speeded_recognition,12,AB,intermixed,6,correct,1168
18,1c,speeded_recognition,13,AB,blocked,3,correct,1284
18,1c,speeded_recognition,14,BC,intermixed,6,incorrect,1427
18,1c,speeded_recognition,15,BC,blocked,2,correct,990
18,1c,speeded_recognition,16,AC,intermixed,6,correct,1328
18,1c,speeded_recognition,17,AB,blocked,1,correct,900
18,1c,speeded_recognition,18,AB,intermixed,5,correct,1029
18,1c,speeded_recognition,19,foil,intermixed,N/A,correct,1308
18,1c,speeded_recognition,20,AC,blocked,1,incorrect,1117
18,1c,speeded_recognition,21,AC,intermixed,6,incorrect,990
18,1c,speeded_recognition,22,foil,blocked,N/A,correct,1233
18,1c,speeded_recognition,23,AB,intermixed,4,correct,944
18,1c,speeded_recognition,24,foil,intermixed,N/A,correct,1310
18,1c,speeded_recognition,25,AC,blocked,2,correct,1025
18,1c,speeded_recognition,26,foil,intermixed,N/A,correct,1092
18,1c,speeded_recognition,27,AC,intermixed,5,incorrect,1259
18,1c,speeded_recognition,28,AC,blocked,3,correct,1083
18,1c,speeded_recognition,29,AC,intermixed,4,incorrect,1187
18,1c,speeded_recognition,30,foil,blocked,N/A,correct,1261
18,1c,speeded_recognition,31,AC,intermixed,5,incorrect,1108
18,1c,speeded_recognition,32,foil,blocked,N/A,correct,937
18,1c,speeded_recognition,33,BC,intermixed,6,correct,1260
18,1c,speeded_recognition,34,AC,blocked,3,correct,1051
18,1c,speeded_recognition,35,BC,intermixed,5,correct,1173
18,1c,speeded_recognition,36,AB,blocked,2,correct,918
18,1c,speeded_recognition,37,foil,intermixed,N/A,incorrect,961
18,1c,speeded_recognition,38,BC,intermixed,4,correct,989
18,1c,speeded_recognition,39,BC,blocked,1,correct,1123
18,1c,speeded_recognition,40,BC,intermixed,5,correct,1053
18,1c,speeded_recognition,41,foil,blocked,N/A,correct,1242
18,1c,speeded_recognition,42,BC,blocked,3,correct,1245
18,1c,speeded_recognition,43,BC,intermixed,4,correct,873
18,1c,speeded_recognition,44,BC,blocked,2,correct,1095
18,1c,speeded_recognition,45,AB,intermixed,6,correct,1168
18,1c,speeded_recognition,46,AB,blocked,2,correct,1281
18,1c,speeded_recognition,47,foil,intermixed,N/A,incorrect,977
18,1c,speeded_recognition,48,AB,blocked,3,correct,1063
18,1c,explicit_inference,1,AC,intermixed,4,correct,4049
18,1c,explicit_inference,2,AC,blocked,3,correct,2931
18,1c,explicit_inference,3,AC,blocked,1,correct,2304
18,1c,explicit_inference,4,AC,intermixed,5,N/A,N/A
18,1c,explicit_inference,5,AC,blocked,1,correct,1706
18,1c,explicit_inference,6,AC,blocked,3,correct,1902
18,1c,explicit_inference,7,AC,intermixed,5,correct,2291
18,1c,explicit_inference,8,AC,blocked,2,correct,2436
18,1c,explicit_inference,9,AC,intermixed,4,correct,2035
18,1c,explicit_inference,10,AC,intermixed,6,correct,1697
18,1c,explicit_inference,11,AC,blocked,2,incorrect,2338
18,1c,explicit_inference,12,AC,intermixed,6,correct,1987
18,1c,explicit_direct,1,AB,intermixed,6,correct,2173
18,1c,explicit_direct,2,AB,blocked,2,correct,1486
18,1c,explicit_direct,3,AB,blocked,3,correct,1501
18,1c,explicit_direct,4,BC,intermixed,6,correct,1608
18,1c,explicit_direct,5,BC,intermixed,5,correct,1592
18,1c,explicit_direct,6,BC,intermixed,4,correct,1840
18,1c,explicit_direct,7,AB,intermixed,5,correct,1799
18,1c,explicit_direct,8,BC,blocked,3,correct,1407
18,1c,explicit_direct,9,AB,intermixed,4,correct,1551
18,1c,explicit_direct,10,AB,blocked,1,correct,1368
18,1c,explicit_direct,11,AB,intermixed,5,correct,1448
18,1c,explicit_direct,12,BC,blocked,2,correct,1560
18,1c,explicit_direct,13,BC,blocked,3,correct,1366
18,1c,explicit_direct,14,BC,blocked,1,correct,1422
18,1c,explicit_direct,15,BC,intermixed,6,correct,1783
18,1c,explicit_direct,16,AB,blocked,2,correct,1384
18,1c,explicit_direct,17,BC,intermixed,5,correct,1447
18,1c,explicit_direct,18,AB,blocked,3,correct,1286
18,1c,explicit_direct,19,AB,intermixed,4,correct,1836
18,1c,explicit_direct,20,AB,blocked,1,correct,1398
18,1c,explicit_direct,21,BC,blocked,2,correct,1986
18,1c,explicit_direct,22,BC,intermixed,4,correct,2121
18,1c,explicit_direct,23,AB,intermixed,6,correct,1313
18,1c,explicit_direct,24,BC,blocked,1,correct,1376
19,1c,speeded_recognition,1,BC,intermixed,6,correct,1911
19,1c,speeded_recognition,2,AB,blocked,1,correct,1927
19,1c,speeded_recognition,3,foil,blocked,N/A,correct,2013
19,1c,speeded_recognition,4,AC,intermixed,5,correct,1649
19,1c,speeded_recognition,5,AC,blocked,2,incorrect,2813
19,1c,speeded_recognition,6,foil,intermixed,N/A,correct,1682
19,1c,speeded_recognition,7,AB,intermixed,5,correct,1463
19,1c,speeded_recognition,8,AB,blocked,2,correct,2240
19,1c,speeded_recognition,9,foil,intermixed,N/A,correct,1581
19,1c,speeded_recognition,10,AB,intermixed,4,correct,2032
19,1c,speeded_recognition,11,AC,blocked,1,correct,1548
19,1c,speeded_recognition,12,BC,intermixed,4,correct,1428
19,1c,speeded_recognition,13,BC,blocked,3,correct,2017
19,1c,speeded_recognition,14,BC,intermixed,4,correct,1014
19,1c,speeded_recognition,15,foil,blocked,N/A,correct,1540
19,1c,speeded_recognition,16,AC,intermixed,6,correct,1277
19,1c,speeded_recognition,17,AB,blocked,1,incorrect,804
19,1c,speeded_recognition,18,foil,intermixed,N/A,correct,1529
19,1c,speeded_recognition,19,AC,blocked,3,correct,1542
19,1c,speeded_recognition,20,foil,intermixed,N/A,correct,1219
19,1c,speeded_recognition,21,BC,blocked,1,correct,1041
19,1c,speeded_recognition,22,BC,intermixed,5,incorrect,1455
19,1c,speeded_recognition,23,foil,intermixed,N/A,correct,1553
19,1c,speeded_recognition,24,AB,blocked,3,correct,1155
19,1c,speeded_recognition,25,AC,intermixed,6,correct,1387
19,1c,speeded_recognition,26,AB,blocked,2,correct,1126
19,1c,speeded_recognition,27,AB,intermixed,5,correct,1304
19,1c,speeded_recognition,28,AC,blocked,1,correct,1702
19,1c,speeded_recognition,29,AB,intermixed,6,correct,1713
19,1c,speeded_recognition,30,BC,blocked,2,correct,2032
19,1c,speeded_recognition,31,AC,intermixed,4,correct,1958
19,1c,speeded_recognition,32,AB,blocked,3,correct,1077
19,1c,speeded_recognition,33,foil,blocked,N/A,incorrect,1931
19,1c,speeded_recognition,34,AC,intermixed,5,correct,1514
19,1c,speeded_recognition,35,AC,blocked,2,incorrect,1546
19,1c,speeded_recognition,36,foil,intermixed,N/A,correct,1360
19,1c,speeded_recognition,37,BC,intermixed,5,incorrect,2033
19,1c,speeded_recognition,38,BC,blocked,1,correct,1285
19,1c,speeded_recognition,39,BC,intermixed,6,correct,1790
19,1c,speeded_recognition,40,foil,blocked,N/A,correct,1929
19,1c,speeded_recognition,41,AC,intermixed,4,correct,2446
19,1c,speeded_recognition,42,BC,blocked,2,correct,2050
19,1c,speeded_recognition,43,AB,intermixed,6,correct,1918
19,1c,speeded_recognition,44,foil,blocked,N/A,correct,848
19,1c,speeded_recognition,45,BC,blocked,3,correct,1147
19,1c,speeded_recognition,46,AB,intermixed,4,incorrect,2311
19,1c,speeded_recognition,47,foil,blocked,N/A,incorrect,2749
19,1c,speeded_recognition,48,AC,blocked,3,correct,1685
19,1c,explicit_inference,1,AC,intermixed,6,incorrect,6727
19,1c,explicit_inference,2,AC,blocked,2,correct,3738
19,1c,explicit_inference,3,AC,blocked,1,correct,1713
19,1c,explicit_inference,4,AC,blocked,3,correct,4297
19,1c,explicit_inference,5,AC,blocked,2,correct,1344
19,1c,explicit_inference,6,AC,intermixed,5,incorrect,2347
19,1c,explicit_inference,7,AC,blocked,1,correct,4345
19,1c,explicit_inference,8,AC,intermixed,5,correct,3081
19,1c,explicit_inference,9,AC,intermixed,4,incorrect,2297
19,1c,explicit_inference,10,AC,intermixed,6,correct,3213
19,1c,explicit_inference,11,AC,intermixed,4,correct,2614
19,1c,explicit_inference,12,AC,blocked,3,incorrect,3310
19,1c,explicit_direct,1,AB,intermixed,6,correct,1481
19,1c,explicit_direct,2,AB,intermixed,5,correct,1572
19,1c,explicit_direct,3,BC,blocked,2,correct,1670
19,1c,explicit_direct,4,AB,blocked,3,incorrect,1291
19,1c,explicit_direct,5,BC,blocked,1,correct,1320
19,1c,explicit_direct,6,BC,intermixed,4,correct,2135
19,1c,explicit_direct,7,AB,intermixed,5,correct,2552
19,1c,explicit_direct,8,AB,blocked,1,correct,1590
19,1c,explicit_direct,9,BC,intermixed,6,correct,1789
19,1c,explicit_direct,10,AB,blocked,3,correct,1632
19,1c,explicit_direct,11,BC,intermixed,5,correct,1864
19,1c,explicit_direct,12,AB,intermixed,6,correct,2046
19,1c,explicit_direct,13,AB,blocked,1,correct,1185
19,1c,explicit_direct,14,AB,intermixed,4,correct,1248
19,1c,explicit_direct,15,BC,intermixed,6,correct,3664
19,1c,explicit_direct,16,BC,blocked,2,correct,2563
19,1c,explicit_direct,17,BC,intermixed,4,correct,2251
19,1c,explicit_direct,18,BC,intermixed,5,correct,1993
19,1c,explicit_direct,19,BC,blocked,1,correct,1091
19,1c,explicit_direct,20,AB,blocked,2,correct,1226
19,1c,explicit_direct,21,AB,intermixed,4,correct,2086
19,1c,explicit_direct,22,BC,blocked,3,correct,1513
19,1c,explicit_direct,23,AB,blocked,2,correct,1166
19,1c,explicit_direct,24,BC,blocked,3,correct,1159
20,1c,speeded_recognition,1,BC,blocked,3,correct,1255
20,1c,speeded_recognition,2,AC,intermixed,5,incorrect,1944
20,1c,speeded_recognition,3,AB,blocked,2,correct,1559
20,1c,speeded_recognition,4,AB,intermixed,4,correct,1912
20,1c,speeded_recognition,5,AC,blocked,2,correct,1687
20,1c,speeded_recognition,6,BC,intermixed,5,correct,1383
20,1c,speeded_recognition,7,AB,blocked,1,correct,1688
20,1c,speeded_recognition,8,BC,intermixed,6,correct,1847
20,1c,speeded_recognition,9,foil,blocked,N/A,correct,1127
20,1c,speeded_recognition,10,AB,intermixed,5,correct,1144
20,1c,speeded_recognition,11,foil,intermixed,N/A,correct,1063
20,1c,speeded_recognition,12,BC,intermixed,5,correct,1015
20,1c,speeded_recognition,13,BC,blocked,1,correct,870
20,1c,speeded_recognition,14,AB,intermixed,6,correct,855
20,1c,speeded_recognition,15,AC,blocked,2,correct,1223
20,1c,speeded_recognition,16,AB,intermixed,4,correct,936
20,1c,speeded_recognition,17,foil,intermixed,N/A,correct,1496
20,1c,speeded_recognition,18,BC,blocked,1,correct,744
20,1c,speeded_recognition,19,foil,blocked,N/A,correct,1079
20,1c,speeded_recognition,20,BC,blocked,3,correct,919
20,1c,speeded_recognition,21,AC,intermixed,6,correct,1110
20,1c,speeded_recognition,22,AC,blocked,1,correct,1223
20,1c,speeded_recognition,23,foil,intermixed,N/A,correct,1400
20,1c,speeded_recognition,24,AC,intermixed,4,correct,1384
20,1c,speeded_recognition,25,AB,blocked,2,correct,855
20,1c,speeded_recognition,26,BC,intermixed,4,correct,775
20,1c,speeded_recognition,27,foil,blocked,N/A,correct,1111
20,1c,speeded_recognition,28,AB,blocked,3,incorrect,1080
20,1c,speeded_recognition,29,AC,intermixed,5,correct,1287
20,1c,speeded_recognition,30,foil,intermixed,N/A,correct,1031
20,1c,speeded_recognition,31,AC,blocked,3,correct,1222
20,1c,speeded_recognition,32,AC,intermixed,6,correct,951
20,1c,speeded_recognition,33,foil,intermixed,N/A,correct,1096
20,1c,speeded_recognition,34,BC,blocked,2,correct,1096
20,1c,speeded_recognition,35,foil,blocked,N/A,correct,1143
20,1c,speeded_recognition,36,BC,blocked,2,correct,807
20,1c,speeded_recognition,37,BC,intermixed,6,correct,936
20,1c,speeded_recognition,38,AC,blocked,1,incorrect,904
20,1c,speeded_recognition,39,foil,intermixed,N/A,correct,1430
20,1c,speeded_recognition,40,AB,intermixed,5,correct,1190
20,1c,speeded_recognition,41,AB,blocked,3,correct,1191
20,1c,speeded_recognition,42,AC,intermixed,4,correct,1127
20,1c,speeded_recognition,43,foil,blocked,N/A,correct,1190
20,1c,speeded_recognition,44,foil,blocked,N/A,incorrect,934
20,1c,speeded_recognition,45,AB,intermixed,6,correct,1591
20,1c,speeded_recognition,46,AB,blocked,1,correct,1495
20,1c,speeded_recognition,47,BC,intermixed,4,correct,1959
20,1c,speeded_recognition,48,AC,blocked,3,correct,1287
20,1c,explicit_inference,1,AC,blocked,2,correct,4365
20,1c,explicit_inference,2,AC,intermixed,5,correct,1826
20,1c,explicit_inference,3,AC,intermixed,4,incorrect,1721
20,1c,explicit_inference,4,AC,intermixed,6,correct,3703
20,1c,explicit_inference,5,AC,blocked,1,correct,1618
20,1c,explicit_inference,6,AC,intermixed,6,correct,2220
20,1c,explicit_inference,7,AC,blocked,3,incorrect,2012
20,1c,explicit_inference,8,AC,intermixed,5,correct,1980
20,1c,explicit_inference,9,AC,blocked,2,correct,1638
20,1c,explicit_inference,10,AC,blocked,1,correct,1887
20,1c,explicit_inference,11,AC,blocked,3,incorrect,1888
20,1c,explicit_inference,12,AC,intermixed,4,incorrect,1348
20,1c,explicit_direct,1,AB,intermixed,4,correct,2260
20,1c,explicit_direct,2,BC,intermixed,5,correct,1752
20,1c,explicit_direct,3,BC,intermixed,4,correct,1265
20,1c,explicit_direct,4,BC,blocked,1,correct,1856
20,1c,explicit_direct,5,BC,blocked,3,correct,1421
20,1c,explicit_direct,6,BC,intermixed,6,correct,1950
20,1c,explicit_direct,7,AB,blocked,3,correct,2054
20,1c,explicit_direct,8,BC,blocked,2,correct,1483
20,1c,explicit_direct,9,AB,blocked,1,correct,1316
20,1c,explicit_direct,10,BC,intermixed,5,correct,1212
20,1c,explicit_direct,11,AB,intermixed,6,correct,1784
20,1c,explicit_direct,12,BC,blocked,1,correct,2033
20,1c,explicit_direct,13,BC,intermixed,6,correct,1577
20,1c,explicit_direct,14,AB,intermixed,5,correct,1556
20,1c,explicit_direct,15,AB,blocked,3,correct,1576
20,1c,explicit_direct,16,AB,blocked,2,correct,1607
20,1c,explicit_direct,17,AB,intermixed,6,correct,1232
20,1c,explicit_direct,18,AB,blocked,1,correct,2448
20,1c,explicit_direct,19,AB,blocked,2,correct,1181
20,1c,explicit_direct,20,BC,blocked,3,correct,1389
20,1c,explicit_direct,21,AB,intermixed,5,correct,1929
20,1c,explicit_direct,22,BC,intermixed,4,correct,1265
20,1c,explicit_direct,23,BC,blocked,2,correct,1253
20,1c,explicit_direct,24,AB,intermixed,4,correct,1793
21,1c,speeded_recognition,1,AB,blocked,3,correct,1428
21,1c,speeded_recognition,2,AC,intermixed,6,incorrect,1112
21,1c,speeded_recognition,3,BC,blocked,3,correct,1052
21,1c,speeded_recognition,4,AB,intermixed,4,correct,1129
21,1c,speeded_recognition,5,foil,blocked,N/A,correct,1318
21,1c,speeded_recognition,6,AC,blocked,1,correct,1057
21,1c,speeded_recognition,7,BC,intermixed,6,correct,962
21,1c,speeded_recognition,8,AC,blocked,2,correct,1163
21,1c,speeded_recognition,9,AC,intermixed,5,correct,874
21,1c,speeded_recognition,10,foil,intermixed,N/A,correct,1162
21,1c,speeded_recognition,11,AB,blocked,2,incorrect,1485
21,1c,speeded_recognition,12,AB,intermixed,6,correct,1183
21,1c,speeded_recognition,13,AC,blocked,1,correct,1067
21,1c,speeded_recognition,14,foil,blocked,N/A,correct,1144
21,1c,speeded_recognition,15,AC,intermixed,5,correct,1102
21,1c,speeded_recognition,16,AC,blocked,2,incorrect,1293
21,1c,speeded_recognition,17,AB,intermixed,5,correct,1197
21,1c,speeded_recognition,18,foil,blocked,N/A,correct,1041
21,1c,speeded_recognition,19,AB,blocked,1,correct,1362
21,1c,speeded_recognition,20,foil,intermixed,N/A,correct,1079
21,1c,speeded_recognition,21,AC,blocked,3,correct,1632
21,1c,speeded_recognition,22,BC,intermixed,5,correct,1049
21,1c,speeded_recognition,23,BC,blocked,2,correct,1192
21,1c,speeded_recognition,24,foil,blocked,N/A,correct,1006
21,1c,speeded_recognition,25,BC,intermixed,4,correct,1121
21,1c,speeded_recognition,26,AB,blocked,1,correct,1277
21,1c,speeded_recognition,27,AC,intermixed,6,incorrect,1520
21,1c,speeded_recognition,28,AB,blocked,3,correct,1163
21,1c,speeded_recognition,29,BC,intermixed,4,correct,1034
21,1c,speeded_recognition,30,foil,intermixed,N/A,correct,1139
21,1c,speeded_recognition,31,AB,intermixed,5,correct,1137
21,1c,speeded_recognition,32,AB,blocked,2,incorrect,1484
21,1c,speeded_recognition,33,AC,intermixed,4,correct,1501
21,1c,speeded_recognition,34,BC,blocked,3,correct,1104
21,1c,speeded_recognition,35,AC,intermixed,4,correct,1069
21,1c,speeded_recognition,36,foil,intermixed,N/A,correct,1150
21,1c,speeded_recognition,37,AB,intermixed,4,correct,1007
21,1c,speeded_recognition,38,BC,blocked,2,correct,946
21,1c,speeded_recognition,39,foil,intermixed,N/A,correct,1125
21,1c,speeded_recognition,40,AB,intermixed,6,correct,1240
21,1c,speeded_recognition,41,BC,blocked,1,correct,1235
21,1c,speeded_recognition,42,BC,intermixed,6,correct,1026
21,1c,speeded_recognition,43,foil,blocked,N/A,correct,1259
21,1c,speeded_recognition,44,BC,blocked,1,correct,1102
21,1c,speeded_recognition,45,foil,intermixed,N/A,correct,1277
21,1c,speeded_recognition,46,foil,blocked,N/A,correct,1042
21,1c,speeded_recognition,47,BC,intermixed,5,correct,1053
21,1c,speeded_recognition,48,AC,blocked,3,correct,1699
21,1c,explicit_inference,1,AC,blocked,1,correct,1952
21,1c,explicit_inference,2,AC,intermixed,4,correct,1908
21,1c,explicit_inference,3,AC,intermixed,5,correct,2120
21,1c,explicit_inference,4,AC,blocked,3,correct,2206
21,1c,explicit_inference,5,AC,intermixed,4,correct,1606
21,1c,explicit_inference,6,AC,intermixed,6,correct,1667
21,1c,explicit_inference,7,AC,blocked,2,correct,1608
21,1c,explicit_inference,8,AC,intermixed,5,correct,1639
21,1c,explicit_inference,9,AC,intermixed,6,correct,1414
21,1c,explicit_inference,10,AC,blocked,3,correct,1608
21,1c,explicit_inference,11,AC,blocked,2,correct,1331
21,1c,explicit_inference,12,AC,blocked,1,correct,2063
21,1c,explicit_direct,1,BC,intermixed,6,correct,1320
21,1c,explicit_direct,2,AB,intermixed,5,correct,1299
21,1c,explicit_direct,3,BC,blocked,3,correct,1444
21,1c,explicit_direct,4,AB,blocked,2,correct,1113
21,1c,explicit_direct,5,AB,blocked,1,correct,1148
21,1c,explicit_direct,6,BC,intermixed,4,correct,1261
21,1c,explicit_direct,7,BC,blocked,3,correct,1539
21,1c,explicit_direct,8,BC,intermixed,5,correct,1237
21,1c,explicit_direct,9,AB,intermixed,4,correct,1303
21,1c,explicit_direct,10,AB,blocked,2,correct,1580
21,1c,explicit_direct,11,AB,intermixed,5,correct,1411
21,1c,explicit_direct,12,BC,blocked,2,correct,1206
21,1c,explicit_direct,13,AB,intermixed,6,correct,1091
21,1c,explicit_direct,14,BC,blocked,1,correct,1188
21,1c,explicit_direct,15,AB,blocked,3,correct,1088
21,1c,explicit_direct,16,BC,intermixed,5,correct,974
21,1c,explicit_direct,17,BC,blocked,2,correct,1033
21,1c,explicit_direct,18,AB,blocked,3,correct,1711
21,1c,explicit_direct,19,BC,intermixed,4,correct,2108
21,1c,explicit_direct,20,BC,blocked,1,correct,1079
21,1c,explicit_direct,21,AB,intermixed,4,correct,1167
21,1c,explicit_direct,22,AB,intermixed,6,correct,906
21,1c,explicit_direct,23,AB,blocked,1,correct,1762
21,1c,explicit_direct,24,BC,intermixed,6,correct,1580
22,1c,speeded_recognition,1,BC,blocked,2,correct,1298
22,1c,speeded_recognition,2,BC,intermixed,5,correct,996
22,1c,speeded_recognition,3,BC,blocked,1,correct,1373
22,1c,speeded_recognition,4,foil,intermixed,N/A,correct,1257
22,1c,speeded_recognition,5,BC,intermixed,4,correct,1379
22,1c,speeded_recognition,6,foil,blocked,N/A,incorrect,1435
22,1c,speeded_recognition,7,AC,blocked,1,correct,1058
22,1c,speeded_recognition,8,foil,intermixed,N/A,correct,2408
22,1c,speeded_recognition,9,AB,intermixed,4,correct,1507
22,1c,speeded_recognition,10,foil,intermixed,N/A,correct,1343
22,1c,speeded_recognition,11,AB,blocked,2,correct,1188
22,1c,speeded_recognition,12,BC,intermixed,4,correct,976
22,1c,speeded_recognition,13,foil,blocked,N/A,correct,1872
22,1c,speeded_recognition,14,AC,blocked,1,correct,1075
22,1c,speeded_recognition,15,foil,intermixed,N/A,incorrect,1173
22,1c,speeded_recognition,16,AC,blocked,3,correct,1513
22,1c,speeded_recognition,17,AB,intermixed,5,correct,1321
22,1c,speeded_recognition,18,foil,blocked,N/A,correct,1496
22,1c,speeded_recognition,19,BC,intermixed,6,correct,1601
22,1c,speeded_recognition,20,AB,blocked,1,incorrect,1756
22,1c,speeded_recognition,21,AB,intermixed,6,correct,1234
22,1c,speeded_recognition,22,AB,blocked,3,correct,1224
22,1c,speeded_recognition,23,AC,intermixed,5,correct,2111
22,1c,speeded_recognition,24,AB,blocked,1,correct,1902
22,1c,speeded_recognition,25,BC,intermixed,5,correct,1825
22,1c,speeded_recognition,26,BC,blocked,3,correct,1691
22,1c,speeded_recognition,27,AC,intermixed,6,correct,1220
22,1c,speeded_recognition,28,AB,blocked,3,correct,1225
22,1c,speeded_recognition,29,foil,blocked,N/A,correct,1127
22,1c,speeded_recognition,30,AC,intermixed,5,correct,1762
22,1c,speeded_recognition,31,AC,blocked,2,correct,1950
22,1c,speeded_recognition,32,AB,intermixed,5,correct,1429
22,1c,speeded_recognition,33,foil,intermixed,N/A,correct,1398
22,1c,speeded_recognition,34,BC,blocked,2,correct,1454
22,1c,speeded_recognition,35,AB,intermixed,4,correct,1187
22,1c,speeded_recognition,36,foil,intermixed,N/A,correct,2135
22,1c,speeded_recognition,37,BC,blocked,1,correct,1305
22,1c,speeded_recognition,38,AC,intermixed,4,incorrect,929
22,1c,speeded_recognition,39,AC,blocked,2,correct,1368
22,1c,speeded_recognition,40,AB,intermixed,6,correct,1851
22,1c,speeded_recognition,41,AC,blocked,3,correct,1426
22,1c,speeded_recognition,42,BC,intermixed,6,correct,1022
22,1c,speeded_recognition,43,BC,blocked,3,correct,1066
22,1c,speeded_recognition,44,AC,intermixed,6,correct,1450
