subject,experiment,task_type,trial_number,target_pair_type,target_pair_condition,target_triad_index,response_correct,response_time
1,1a,speeded_recognition,1,AB,blocked,1,correct,1752
1,1a,speeded_recognition,2,AC,intermixed,6,correct,921
1,1a,speeded_recognition,3,AC,blocked,3,correct,1233
1,1a,speeded_recognition,4,AB,intermixed,5,correct,1280
1,1a,speeded_recognition,5,AC,blocked,1,correct,1630
1,1a,speeded_recognition,6,BC,intermixed,6,correct,1836
1,1a,speeded_recognition,7,foil,intermixed,N/A,correct,1039
1,1a,speeded_recognition,8,BC,blocked,2,correct,1282
1,1a,speeded_recognition,9,foil,blocked,N/A,correct,1512
1,1a,speeded_recognition,10,AC,intermixed,4,correct,1269
1,1a,speeded_recognition,11,BC,blocked,3,correct,1812
1,1a,speeded_recognition,12,BC,intermixed,6,correct,1225
1,1a,speeded_recognition,13,foil,intermixed,N/A,correct,1530
1,1a,speeded_recognition,14,AB,blocked,2,incorrect,1211
1,1a,speeded_recognition,15,AC,intermixed,5,correct,1963
1,1a,speeded_recognition,16,foil,blocked,N/A,correct,1899
1,1a,speeded_recognition,17,BC,intermixed,4,correct,1209
1,1a,speeded_recognition,18,foil,blocked,N/A,correct,1242
1,1a,speeded_recognition,19,AB,blocked,1,correct,995
1,1a,speeded_recognition,20,foil,blocked,N/A,correct,1213
1,1a,speeded_recognition,21,AC,intermixed,5,correct,1970
1,1a,speeded_recognition,22,BC,blocked,1,correct,1343
1,1a,speeded_recognition,23,AC,intermixed,6,incorrect,1455
1,1a,speeded_recognition,24,AC,blocked,2,correct,1149
1,1a,speeded_recognition,25,foil,intermixed,N/A,correct,1861
1,1a,speeded_recognition,26,BC,intermixed,4,correct,1411
1,1a,speeded_recognition,27,BC,blocked,3,correct,1491
1,1a,speeded_recognition,28,AB,intermixed,4,correct,894
1,1a,speeded_recognition,29,AB,blocked,3,correct,1541
1,1a,speeded_recognition,30,AB,intermixed,6,correct,1715
1,1a,speeded_recognition,31,foil,intermixed,N/A,correct,1859
1,1a,speeded_recognition,32,AC,blocked,2,correct,1376
1,1a,speeded_recognition,33,BC,intermixed,5,correct,1235
1,1a,speeded_recognition,34,AB,blocked,2,correct,1044
1,1a,speeded_recognition,35,foil,intermixed,N/A,correct,1131
1,1a,speeded_recognition,36,AB,intermixed,5,correct,1741
1,1a,speeded_recognition,37,AC,blocked,3,correct,1683
1,1a,speeded_recognition,38,AB,intermixed,4,correct,1311
1,1a,speeded_recognition,39,foil,intermixed,N/A,correct,1276
1,1a,speeded_recognition,40,AC,blocked,1,correct,1182
1,1a,speeded_recognition,41,AC,intermixed,4,correct,1366
1,1a,speeded_recognition,42,foil,blocked,N/A,correct,986
1,1a,speeded_recognition,43,BC,blocked,2,correct,1086
1,1a,speeded_recognition,44,BC,intermixed,5,correct,1451
1,1a,speeded_recognition,45,BC,blocked,1,correct,1495
1,1a,speeded_recognition,46,foil,blocked,N/A,correct,1556
1,1a,speeded_recognition,47,AB,intermixed,6,correct,1568
1,1a,speeded_recognition,48,AB,blocked,3,correct,980
1,1a,explicit_inference,1,AC,blocked,3,correct,1990
1,1a,explicit_inference,2,AC,intermixed,5,correct,1629
1,1a,explicit_inference,3,AC,intermixed,4,incorrect,2880
1,1a,explicit_inference,4,AC,blocked,2,incorrect,3227
1,1a,explicit_inference,5,AC,blocked,1,correct,2675
1,1a,explicit_inference,6,AC,intermixed,6,correct,2026
1,1a,explicit_inference,7,AC,intermixed,5,incorrect,3730
1,1a,explicit_inference,8,AC,intermixed,4,correct,2745
1,1a,explicit_inference,9,AC,intermixed,6,correct,1797
1,1a,explicit_inference,10,AC,blocked,3,incorrect,2469
1,1a,explicit_inference,11,AC,blocked,1,incorrect,3945
1,1a,explicit_inference,12,AC,blocked,2,incorrect,3874
2,1a,speeded_recognition,1,BC,blocked,1,correct,1477
2,1a,speeded_recognition,2,foil,intermixed,N/A,incorrect,1549
2,1a,speeded_recognition,3,AC,blocked,3,correct,1459
2,1a,speeded_recognition,4,BC,intermixed,4,correct,1169
2,1a,speeded_recognition,5,AC,blocked,3,correct,1333
2,1a,speeded_recognition,6,AC,intermixed,4,correct,1734
2,1a,speeded_recognition,7,foil,blocked,N/A,correct,1287
2,1a,speeded_recognition,8,AC,blocked,1,correct,1383
2,1a,speeded_recognition,9,foil,intermixed,N/A,correct,1541
2,1a,speeded_recognition,10,AB,intermixed,4,correct,1399
2,1a,speeded_recognition,11,AB,blocked,1,correct,1258
2,1a,speeded_recognition,12,BC,intermixed,5,incorrect,1029
2,1a,speeded_recognition,13,foil,blocked,N/A,correct,1359
2,1a,speeded_recognition,14,AC,blocked,2,correct,1294
2,1a,speeded_recognition,15,foil,intermixed,N/A,correct,1675
2,1a,speeded_recognition,16,BC,intermixed,5,correct,937
2,1a,speeded_recognition,17,AB,blocked,2,correct,1329
2,1a,speeded_recognition,18,AB,intermixed,6,correct,1986
2,1a,speeded_recognition,19,foil,intermixed,N/A,correct,1675
2,1a,speeded_recognition,20,AB,blocked,2,correct,1163
2,1a,speeded_recognition,21,BC,intermixed,6,correct,2136
2,1a,speeded_recognition,22,AC,blocked,1,correct,1834
2,1a,speeded_recognition,23,foil,intermixed,N/A,correct,1564
2,1a,speeded_recognition,24,foil,blocked,N/A,correct,1042
2,1a,speeded_recognition,25,AB,intermixed,6,correct,1173
2,1a,speeded_recognition,26,AB,blocked,1,correct,1313
2,1a,speeded_recognition,27,AC,intermixed,5,correct,2087
2,1a,speeded_recognition,28,BC,blocked,3,correct,1620
2,1a,speeded_recognition,29,AB,intermixed,5,incorrect,3205
2,1a,speeded_recognition,30,foil,intermixed,N/A,correct,1503
2,1a,speeded_recognition,31,BC,blocked,1,correct,1727
2,1a,speeded_recognition,32,AB,intermixed,4,correct,1404
2,1a,speeded_recognition,33,foil,blocked,N/A,incorrect,2183
2,1a,speeded_recognition,34,BC,intermixed,4,correct,1483
2,1a,speeded_recognition,35,AB,blocked,3,correct,1208
2,1a,speeded_recognition,36,AC,intermixed,6,N/A,N/A
2,1a,speeded_recognition,37,foil,blocked,N/A,correct,1250
2,1a,speeded_recognition,38,BC,blocked,2,correct,1789
2,1a,speeded_recognition,39,AC,intermixed,4,correct,1526
2,1a,speeded_recognition,40,BC,blocked,2,correct,1339
2,1a,speeded_recognition,41,AC,intermixed,5,correct,1488
2,1a,speeded_recognition,42,AC,blocked,2,correct,1329
2,1a,speeded_recognition,43,BC,intermixed,6,correct,1216
2,1a,speeded_recognition,44,AB,blocked,3,correct,983
2,1a,speeded_recognition,45,foil,blocked,N/A,correct,1281
2,1a,speeded_recognition,46,AB,intermixed,5,correct,1606
2,1a,speeded_recognition,47,BC,blocked,3,correct,1633
2,1a,speeded_recognition,48,AC,intermixed,6,incorrect,1187
2,1a,explicit_inference,1,AC,blocked,3,correct,4073
2,1a,explicit_inference,2,AC,intermixed,6,N/A,N/A
2,1a,explicit_inference,3,AC,intermixed,4,correct,3198
2,1a,explicit_inference,4,AC,blocked,2,correct,4286
2,1a,explicit_inference,5,AC,blocked,1,correct,2134
2,1a,explicit_inference,6,AC,intermixed,5,correct,5544
2,1a,explicit_inference,7,AC,blocked,2,correct,3028
2,1a,explicit_inference,8,AC,intermixed,6,correct,2726
2,1a,explicit_inference,9,AC,blocked,3,incorrect,2182
2,1a,explicit_inference,10,AC,intermixed,4,correct,2894
2,1a,explicit_inference,11,AC,blocked,1,correct,3055
2,1a,explicit_inference,12,AC,intermixed,5,correct,2358
3,1a,speeded_recognition,1,AB,intermixed,5,correct,791
3,1a,speeded_recognition,2,foil,intermixed,N/A,correct,823
3,1a,speeded_recognition,3,BC,blocked,3,correct,672
3,1a,speeded_recognition,4,foil,intermixed,N/A,correct,783
3,1a,speeded_recognition,5,BC,blocked,1,correct,608
3,1a,speeded_recognition,6,foil,intermixed,N/A,correct,952
3,1a,speeded_recognition,7,AC,blocked,2,correct,928
3,1a,speeded_recognition,8,foil,intermixed,N/A,incorrect,757
3,1a,speeded_recognition,9,AC,intermixed,5,incorrect,784
3,1a,speeded_recognition,10,BC,blocked,1,correct,800
3,1a,speeded_recognition,11,AB,intermixed,4,correct,967
3,1a,speeded_recognition,12,foil,intermixed,N/A,correct,839
3,1a,speeded_recognition,13,AB,blocked,3,incorrect,861
3,1a,speeded_recognition,14,AB,intermixed,4,correct,821
3,1a,speeded_recognition,15,foil,intermixed,N/A,correct,1415
3,1a,speeded_recognition,16,AB,blocked,2,correct,1160
3,1a,speeded_recognition,17,AC,intermixed,5,incorrect,1190
3,1a,speeded_recognition,18,AB,blocked,1,incorrect,1148
3,1a,speeded_recognition,19,foil,blocked,N/A,correct,1174
3,1a,speeded_recognition,20,BC,intermixed,4,correct,824
3,1a,speeded_recognition,21,BC,blocked,2,correct,814
3,1a,speeded_recognition,22,AC,intermixed,6,correct,1230
3,1a,speeded_recognition,23,foil,blocked,N/A,correct,1132
3,1a,speeded_recognition,24,foil,blocked,N/A,incorrect,873
3,1a,speeded_recognition,25,AC,blocked,2,correct,1311
3,1a,speeded_recognition,26,AB,intermixed,6,correct,1047
3,1a,speeded_recognition,27,foil,blocked,N/A,correct,974
3,1a,speeded_recognition,28,BC,intermixed,5,correct,917
3,1a,speeded_recognition,29,AC,blocked,3,correct,1044
3,1a,speeded_recognition,30,AC,intermixed,4,incorrect,1118
3,1a,speeded_recognition,31,AB,blocked,2,correct,763
3,1a,speeded_recognition,32,foil,blocked,N/A,correct,1492
3,1a,speeded_recognition,33,AB,intermixed,5,correct,751
3,1a,speeded_recognition,34,AC,blocked,1,incorrect,1375
3,1a,speeded_recognition,35,BC,intermixed,6,correct,717
3,1a,speeded_recognition,36,AB,blocked,1,correct,887
3,1a,speeded_recognition,37,BC,intermixed,6,correct,608
3,1a,speeded_recognition,38,AB,blocked,3,correct,742
3,1a,speeded_recognition,39,BC,intermixed,5,correct,791
3,1a,speeded_recognition,40,AC,blocked,3,correct,1120
3,1a,speeded_recognition,41,AB,intermixed,6,correct,712
3,1a,speeded_recognition,42,BC,blocked,3,correct,1031
3,1a,speeded_recognition,43,AC,intermixed,6,correct,1206
3,1a,speeded_recognition,44,foil,blocked,N/A,correct,1287
3,1a,speeded_recognition,45,BC,blocked,2,correct,764
3,1a,speeded_recognition,46,BC,intermixed,4,correct,657
3,1a,speeded_recognition,47,AC,blocked,1,incorrect,849
3,1a,speeded_recognition,48,AC,intermixed,4,incorrect,909
3,1a,explicit_inference,1,AC,blocked,3,correct,6862
3,1a,explicit_inference,2,AC,intermixed,4,correct,2865
3,1a,explicit_inference,3,AC,blocked,2,incorrect,2153
3,1a,explicit_inference,4,AC,blocked,1,correct,1372
3,1a,explicit_inference,5,AC,intermixed,5,correct,1287
3,1a,explicit_inference,6,AC,intermixed,6,correct,1777
3,1a,explicit_inference,7,AC,blocked,1,correct,1482
3,1a,explicit_inference,8,AC,intermixed,5,correct,1155
3,1a,explicit_inference,9,AC,blocked,3,correct,2098
3,1a,explicit_inference,10,AC,intermixed,6,correct,1309
3,1a,explicit_inference,11,AC,intermixed,4,correct,1276
3,1a,explicit_inference,12,AC,blocked,2,correct,1122
4,1a,speeded_recognition,1,AC,blocked,2,correct,871
4,1a,speeded_recognition,2,AB,intermixed,5,correct,1054
4,1a,speeded_recognition,3,AB,blocked,1,correct,1365
4,1a,speeded_recognition,4,BC,intermixed,4,correct,1232
4,1a,speeded_recognition,5,foil,blocked,N/A,correct,1755
4,1a,speeded_recognition,6,AC,intermixed,5,correct,1430
4,1a,speeded_recognition,7,BC,blocked,1,correct,1511
4,1a,speeded_recognition,8,AC,intermixed,4,correct,2136
4,1a,speeded_recognition,9,foil,intermixed,N/A,correct,1294
4,1a,speeded_recognition,10,BC,blocked,2,correct,1048
4,1a,speeded_recognition,11,foil,blocked,N/A,incorrect,1126
4,1a,speeded_recognition,12,AB,intermixed,6,correct,1024
4,1a,speeded_recognition,13,BC,blocked,3,correct,1118
4,1a,speeded_recognition,14,AB,intermixed,4,correct,856
4,1a,speeded_recognition,15,AC,blocked,1,correct,1197
4,1a,speeded_recognition,16,AB,intermixed,6,correct,1039
4,1a,speeded_recognition,17,BC,blocked,2,correct,815
4,1a,speeded_recognition,18,foil,intermixed,N/A,correct,1478
4,1a,speeded_recognition,19,AC,blocked,3,correct,1184
4,1a,speeded_recognition,20,foil,intermixed,N/A,correct,1224
4,1a,speeded_recognition,21,BC,intermixed,6,correct,959
4,1a,speeded_recognition,22,AB,blocked,3,incorrect,1071
4,1a,speeded_recognition,23,AC,intermixed,4,correct,1279
4,1a,speeded_recognition,24,foil,intermixed,N/A,correct,1198
4,1a,speeded_recognition,25,foil,intermixed,N/A,correct,1055
4,1a,speeded_recognition,26,AC,blocked,1,correct,2408
4,1a,speeded_recognition,27,AC,intermixed,6,correct,981
4,1a,speeded_recognition,28,BC,blocked,3,correct,1248
4,1a,speeded_recognition,29,BC,intermixed,6,correct,1070
4,1a,speeded_recognition,30,AB,blocked,1,correct,2583
4,1a,speeded_recognition,31,foil,blocked,N/A,correct,1230
4,1a,speeded_recognition,32,AB,intermixed,4,correct,823
4,1a,speeded_recognition,33,foil,blocked,N/A,correct,1208
4,1a,speeded_recognition,34,BC,intermixed,5,correct,1374
4,1a,speeded_recognition,35,AB,blocked,3,correct,725
4,1a,speeded_recognition,36,AC,intermixed,5,correct,999
4,1a,speeded_recognition,37,foil,blocked,N/A,correct,1220
4,1a,speeded_recognition,38,AB,blocked,2,correct,775
4,1a,speeded_recognition,39,AC,intermixed,6,correct,1140
4,1a,speeded_recognition,40,AC,blocked,2,incorrect,1760
4,1a,speeded_recognition,41,BC,intermixed,4,correct,1300
4,1a,speeded_recognition,42,AB,blocked,2,correct,1255
4,1a,speeded_recognition,43,AB,intermixed,5,correct,1182
4,1a,speeded_recognition,44,BC,blocked,1,correct,1319
4,1a,speeded_recognition,45,foil,blocked,N/A,correct,1167
4,1a,speeded_recognition,46,BC,intermixed,5,correct,1629
4,1a,speeded_recognition,47,foil,intermixed,N/A,correct,1399
4,1a,speeded_recognition,48,AC,blocked,3,correct,1200
4,1a,explicit_inference,1,AC,blocked,1,incorrect,7117
4,1a,explicit_inference,2,AC,intermixed,5,correct,2870
4,1a,explicit_inference,3,AC,intermixed,6,incorrect,3119
4,1a,explicit_inference,4,AC,intermixed,4,correct,3774
4,1a,explicit_inference,5,AC,blocked,3,correct,3037
4,1a,explicit_inference,6,AC,blocked,2,correct,2001
4,1a,explicit_inference,7,AC,intermixed,6,incorrect,2621
4,1a,explicit_inference,8,AC,blocked,3,correct,4158
4,1a,explicit_inference,9,AC,intermixed,4,correct,2694
4,1a,explicit_inference,10,AC,blocked,2,correct,1978
4,1a,explicit_inference,11,AC,intermixed,5,correct,2825
4,1a,explicit_inference,12,AC,blocked,1,correct,2088
5,1a,speeded_recognition,1,BC,intermixed,6,correct,1855
5,1a,speeded_recognition,2,BC,blocked,2,correct,1240
5,1a,speeded_recognition,3,AC,intermixed,5,correct,1721
5,1a,speeded_recognition,4,foil,blocked,N/A,correct,1041
5,1a,speeded_recognition,5,AC,intermixed,6,correct,1444
5,1a,speeded_recognition,6,AB,blocked,1,correct,1122
5,1a,speeded_recognition,7,foil,blocked,N/A,correct,1857
5,1a,speeded_recognition,8,AC,intermixed,6,correct,1443
5,1a,speeded_recognition,9,AC,blocked,2,correct,1326
5,1a,speeded_recognition,10,AB,intermixed,5,correct,1311
5,1a,speeded_recognition,11,AC,blocked,2,correct,2311
5,1a,speeded_recognition,12,AC,intermixed,4,correct,2683
5,1a,speeded_recognition,13,foil,blocked,N/A,correct,2638
5,1a,speeded_recognition,14,AB,blocked,3,correct,2032
5,1a,speeded_recognition,15,AC,intermixed,4,correct,2855
5,1a,speeded_recognition,16,AB,blocked,1,correct,1979
5,1a,speeded_recognition,17,foil,blocked,N/A,correct,1826
5,1a,speeded_recognition,18,BC,intermixed,6,correct,2350
5,1a,speeded_recognition,19,AC,blocked,1,incorrect,2574
5,1a,speeded_recognition,20,AB,intermixed,5,correct,1794
5,1a,speeded_recognition,21,BC,blocked,2,correct,1800
5,1a,speeded_recognition,22,foil,intermixed,N/A,incorrect,1767
5,1a,speeded_recognition,23,AC,blocked,3,correct,2542
5,1a,speeded_recognition,24,foil,intermixed,N/A,correct,1171
5,1a,speeded_recognition,25,BC,intermixed,4,correct,2145
5,1a,speeded_recognition,26,BC,blocked,3,correct,1828
5,1a,speeded_recognition,27,AB,intermixed,4,correct,2240
5,1a,speeded_recognition,28,AB,blocked,2,correct,2929
5,1a,speeded_recognition,29,foil,intermixed,N/A,correct,1785
5,1a,speeded_recognition,30,BC,intermixed,4,correct,1570
5,1a,speeded_recognition,31,foil,intermixed,N/A,correct,1095
5,1a,speeded_recognition,32,BC,blocked,1,correct,1167
5,1a,speeded_recognition,33,BC,intermixed,5,correct,2992
5,1a,speeded_recognition,34,foil,intermixed,N/A,correct,1761
5,1a,speeded_recognition,35,AC,blocked,1,correct,1781
5,1a,speeded_recognition,36,AB,intermixed,4,correct,1917
5,1a,speeded_recognition,37,AB,blocked,2,correct,1139
5,1a,speeded_recognition,38,foil,intermixed,N/A,correct,1269
5,1a,speeded_recognition,39,AC,blocked,3,incorrect,2713
5,1a,speeded_recognition,40,BC,intermixed,5,correct,1755
5,1a,speeded_recognition,41,BC,blocked,3,correct,1640
5,1a,speeded_recognition,42,foil,blocked,N/A,correct,1924
5,1a,speeded_recognition,43,AB,intermixed,6,correct,1312
5,1a,speeded_recognition,44,AB,blocked,3,correct,2583
5,1a,speeded_recognition,45,foil,blocked,N/A,correct,1188
5,1a,speeded_recognition,46,AC,intermixed,5,correct,1165
5,1a,speeded_recognition,47,BC,blocked,1,correct,3285
5,1a,speeded_recognition,48,AB,intermixed,6,correct,1612
5,1a,explicit_inference,1,AC,intermixed,5,correct,11369
5,1a,explicit_inference,2,AC,blocked,3,correct,2384
5,1a,explicit_inference,3,AC,intermixed,6,correct,4108
5,1a,explicit_inference,4,AC,blocked,2,correct,3328
5,1a,explicit_inference,5,AC,blocked,1,correct,2674
5,1a,explicit_inference,6,AC,intermixed,4,correct,3762
5,1a,explicit_inference,7,AC,intermixed,5,incorrect,5373
5,1a,explicit_inference,8,AC,blocked,3,correct,2045
5,1a,explicit_inference,9,AC,intermixed,6,correct,5568
5,1a,explicit_inference,10,AC,blocked,1,correct,3313
5,1a,explicit_inference,11,AC,blocked,2,correct,4967
5,1a,explicit_inference,12,AC,intermixed,4,correct,2715
6,1a,speeded_recognition,1,AC,intermixed,6,correct,1863
6,1a,speeded_recognition,2,BC,blocked,1,correct,1053
6,1a,speeded_recognition,3,AB,intermixed,5,correct,1161
6,1a,speeded_recognition,4,AC,blocked,1,incorrect,1164
6,1a,speeded_recognition,5,AC,intermixed,5,correct,1135
6,1a,speeded_recognition,6,BC,blocked,2,correct,931
6,1a,speeded_recognition,7,AB,intermixed,4,incorrect,1332
6,1a,speeded_recognition,8,foil,intermixed,N/A,correct,1172
6,1a,speeded_recognition,9,AB,blocked,2,correct,1133
6,1a,speeded_recognition,10,AC,intermixed,6,correct,1091
6,1a,speeded_recognition,11,AB,blocked,2,correct,838
6,1a,speeded_recognition,12,AB,intermixed,4,correct,907
6,1a,speeded_recognition,13,foil,blocked,N/A,correct,1053
6,1a,speeded_recognition,14,AC,blocked,1,correct,1276
6,1a,speeded_recognition,15,AB,intermixed,5,correct,879
6,1a,speeded_recognition,16,foil,intermixed,N/A,correct,912
6,1a,speeded_recognition,17,AC,blocked,2,correct,1136
6,1a,speeded_recognition,18,foil,intermixed,N/A,correct,1069
6,1a,speeded_recognition,19,BC,intermixed,6,correct,863
6,1a,speeded_recognition,20,BC,blocked,3,incorrect,939
6,1a,speeded_recognition,21,BC,intermixed,4,correct,854
6,1a,speeded_recognition,22,AB,blocked,1,correct,949
6,1a,speeded_recognition,23,AB,intermixed,6,correct,933
6,1a,speeded_recognition,24,AC,blocked,2,correct,764
6,1a,speeded_recognition,25,foil,blocked,N/A,correct,1178
6,1a,speeded_recognition,26,foil,blocked,N/A,correct,765
6,1a,speeded_recognition,27,foil,blocked,N/A,correct,874
6,1a,speeded_recognition,28,BC,intermixed,4,correct,1074
6,1a,speeded_recognition,29,foil,blocked,N/A,correct,853
6,1a,speeded_recognition,30,BC,blocked,1,correct,1156
6,1a,speeded_recognition,31,BC,intermixed,6,correct,749
6,1a,speeded_recognition,32,AB,blocked,1,correct,814
6,1a,speeded_recognition,33,AB,intermixed,6,correct,1053
6,1a,speeded_recognition,34,AC,blocked,3,correct,907
6,1a,speeded_recognition,35,foil,intermixed,N/A,incorrect,810
6,1a,speeded_recognition,36,AC,intermixed,5,correct,953
6,1a,speeded_recognition,37,AB,blocked,3,correct,1115
6,1a,speeded_recognition,38,foil,intermixed,N/A,correct,886
6,1a,speeded_recognition,39,AC,intermixed,4,correct,1725
6,1a,speeded_recognition,40,foil,blocked,N/A,correct,800
6,1a,speeded_recognition,41,BC,intermixed,5,correct,910
6,1a,speeded_recognition,42,AC,blocked,3,correct,827
6,1a,speeded_recognition,43,AC,intermixed,4,incorrect,1237
6,1a,speeded_recognition,44,BC,blocked,3,incorrect,801
6,1a,speeded_recognition,45,BC,intermixed,5,incorrect,748
6,1a,speeded_recognition,46,BC,blocked,2,correct,902
6,1a,speeded_recognition,47,foil,intermixed,N/A,correct,757
6,1a,speeded_recognition,48,AB,blocked,3,correct,850
6,1a,explicit_inference,1,AC,intermixed,6,correct,1860
6,1a,explicit_inference,2,AC,blocked,3,correct,2786
6,1a,explicit_inference,3,AC,intermixed,4,correct,2799
6,1a,explicit_inference,4,AC,blocked,2,correct,1494
6,1a,explicit_inference,5,AC,blocked,1,correct,1413
6,1a,explicit_inference,6,AC,intermixed,5,incorrect,2489
6,1a,explicit_inference,7,AC,blocked,1,correct,1051
6,1a,explicit_inference,8,AC,intermixed,6,correct,1806
6,1a,explicit_inference,9,AC,intermixed,5,correct,2455
6,1a,explicit_inference,10,AC,blocked,3,incorrect,3112
6,1a,explicit_inference,11,AC,blocked,2,correct,1658
6,1a,explicit_inference,12,AC,intermixed,4,correct,1305
7,1a,speeded_recognition,1,BC,intermixed,6,correct,1252
7,1a,speeded_recognition,2,BC,blocked,3,correct,1127
7,1a,speeded_recognition,3,BC,intermixed,5,correct,1332
7,1a,speeded_recognition,4,AB,blocked,2,correct,1739
7,1a,speeded_recognition,5,AC,intermixed,5,incorrect,1251
7,1a,speeded_recognition,6,foil,intermixed,N/A,correct,1113
7,1a,speeded_recognition,7,AC,blocked,1,correct,1557
7,1a,speeded_recognition,8,foil,blocked,N/A,correct,1362
7,1a,speeded_recognition,9,AB,intermixed,5,correct,812
7,1a,speeded_recognition,10,AC,blocked,3,correct,1361
7,1a,speeded_recognition,11,AC,intermixed,6,incorrect,941
7,1a,speeded_recognition,12,AC,blocked,2,correct,1204
7,1a,speeded_recognition,13,BC,intermixed,4,correct,1041
7,1a,speeded_recognition,14,foil,blocked,N/A,correct,1147
7,1a,speeded_recognition,15,AC,blocked,2,correct,1330
7,1a,speeded_recognition,16,foil,blocked,N/A,correct,1134
7,1a,speeded_recognition,17,AC,intermixed,4,correct,1557
7,1a,speeded_recognition,18,foil,intermixed,N/A,correct,1381
7,1a,speeded_recognition,19,BC,blocked,1,correct,913
7,1a,speeded_recognition,20,BC,intermixed,6,correct,973
7,1a,speeded_recognition,21,foil,intermixed,N/A,correct,1215
7,1a,speeded_recognition,22,AC,blocked,1,correct,1289
7,1a,speeded_recognition,23,AB,intermixed,4,correct,787
7,1a,speeded_recognition,24,AB,blocked,1,correct,859
7,1a,speeded_recognition,25,foil,intermixed,N/A,correct,1683
7,1a,speeded_recognition,26,AC,blocked,3,correct,1391
7,1a,speeded_recognition,27,AC,intermixed,6,incorrect,1095
7,1a,speeded_recognition,28,foil,blocked,N/A,correct,1261
7,1a,speeded_recognition,29,AB,intermixed,6,correct,932
7,1a,speeded_recognition,30,AB,blocked,3,correct,847
7,1a,speeded_recognition,31,foil,blocked,N/A,correct,1760
7,1a,speeded_recognition,32,AB,intermixed,4,correct,724
7,1a,speeded_recognition,33,BC,blocked,2,correct,1155
7,1a,speeded_recognition,34,foil,intermixed,N/A,correct,1728
7,1a,speeded_recognition,35,BC,intermixed,4,correct,850
7,1a,speeded_recognition,36,AB,blocked,3,correct,923
7,1a,speeded_recognition,37,AC,intermixed,4,correct,1282
7,1a,speeded_recognition,38,AB,blocked,1,correct,751
7,1a,speeded_recognition,39,AB,intermixed,6,correct,1221
7,1a,speeded_recognition,40,AB,blocked,2,correct,1279
7,1a,speeded_recognition,41,AB,intermixed,5,correct,1277
7,1a,speeded_recognition,42,BC,blocked,2,correct,1163
7,1a,speeded_recognition,43,foil,blocked,N/A,correct,2006
7,1a,speeded_recognition,44,BC,intermixed,5,correct,1355
7,1a,speeded_recognition,45,BC,blocked,1,correct,863
7,1a,speeded_recognition,46,foil,intermixed,N/A,correct,1490
7,1a,speeded_recognition,47,BC,blocked,3,correct,856
7,1a,speeded_recognition,48,AC,intermixed,5,incorrect,1304
7,1a,explicit_inference,1,AC,intermixed,6,correct,6253
7,1a,explicit_inference,2,AC,intermixed,4,incorrect,4953
7,1a,explicit_inference,3,AC,blocked,3,correct,3386
7,1a,explicit_inference,4,AC,blocked,2,incorrect,6924
7,1a,explicit_inference,5,AC,intermixed,5,correct,4460
7,1a,explicit_inference,6,AC,blocked,1,correct,5173
7,1a,explicit_inference,7,AC,intermixed,5,correct,2762
7,1a,explicit_inference,8,AC,blocked,1,correct,3597
7,1a,explicit_inference,9,AC,blocked,2,correct,4333
7,1a,explicit_inference,10,AC,intermixed,6,correct,3217
7,1a,explicit_inference,11,AC,intermixed,4,correct,4360
7,1a,explicit_inference,12,AC,blocked,3,correct,2734
8,1a,speeded_recognition,1,AC,intermixed,6,correct,1079
8,1a,speeded_recognition,2,AB,blocked,2,correct,1306
8,1a,speeded_recognition,3,foil,intermixed,N/A,correct,1018
8,1a,speeded_recognition,4,BC,intermixed,5,correct,955
8,1a,speeded_recognition,5,AC,blocked,1,correct,1507
8,1a,speeded_recognition,6,foil,intermixed,N/A,correct,1127
8,1a,speeded_recognition,7,BC,intermixed,4,correct,969
8,1a,speeded_recognition,8,AC,blocked,2,correct,1625
8,1a,speeded_recognition,9,AB,intermixed,4,correct,757
8,1a,speeded_recognition,10,BC,blocked,3,correct,1219
8,1a,speeded_recognition,11,BC,intermixed,6,correct,1213
8,1a,speeded_recognition,12,AB,blocked,3,incorrect,1172
8,1a,speeded_recognition,13,foil,blocked,N/A,correct,1329
8,1a,speeded_recognition,14,AB,intermixed,5,correct,1135
8,1a,speeded_recognition,15,foil,blocked,N/A,correct,1350
8,1a,speeded_recognition,16,BC,blocked,1,correct,1201
8,1a,speeded_recognition,17,AB,intermixed,6,correct,1443
8,1a,speeded_recognition,18,AB,blocked,3,correct,1584
8,1a,speeded_recognition,19,foil,blocked,N/A,correct,1678
8,1a,speeded_recognition,20,BC,intermixed,6,correct,1134
8,1a,speeded_recognition,21,BC,blocked,2,correct,828
8,1a,speeded_recognition,22,BC,intermixed,4,correct,791
8,1a,speeded_recognition,23,BC,blocked,3,correct,775
8,1a,speeded_recognition,24,AC,intermixed,6,correct,1454
8,1a,speeded_recognition,25,AC,blocked,2,correct,1727
8,1a,speeded_recognition,26,AB,intermixed,4,correct,891
8,1a,speeded_recognition,27,AB,blocked,1,correct,880
8,1a,speeded_recognition,28,BC,intermixed,5,correct,785
8,1a,speeded_recognition,29,foil,intermixed,N/A,correct,1185
8,1a,speeded_recognition,30,BC,blocked,1,correct,929
8,1a,speeded_recognition,31,AC,intermixed,5,correct,1263
8,1a,speeded_recognition,32,foil,intermixed,N/A,correct,1160
8,1a,speeded_recognition,33,AB,blocked,2,correct,1625
8,1a,speeded_recognition,34,AB,intermixed,6,correct,1172
8,1a,speeded_recognition,35,foil,blocked,N/A,correct,1062
8,1a,speeded_recognition,36,AC,blocked,3,correct,1398
8,1a,speeded_recognition,37,AB,intermixed,5,correct,892
8,1a,speeded_recognition,38,foil,intermixed,N/A,correct,1053
8,1a,speeded_recognition,39,AC,blocked,1,correct,1108
8,1a,speeded_recognition,40,foil,blocked,N/A,correct,1568
8,1a,speeded_recognition,41,AC,intermixed,4,correct,888
8,1a,speeded_recognition,42,foil,blocked,N/A,correct,919
8,1a,speeded_recognition,43,BC,blocked,2,correct,860
8,1a,speeded_recognition,44,AC,intermixed,4,correct,1137
8,1a,speeded_recognition,45,AC,blocked,3,correct,1166
8,1a,speeded_recognition,46,AC,intermixed,5,correct,1080
8,1a,speeded_recognition,47,AB,blocked,1,correct,909
8,1a,speeded_recognition,48,foil,intermixed,N/A,correct,1217
8,1a,explicit_inference,1,AC,blocked,2,correct,6525
8,1a,explicit_inference,2,AC,blocked,1,correct,5590
8,1a,explicit_inference,3,AC,intermixed,4,correct,4105
8,1a,explicit_inference,4,AC,blocked,3,correct,3700
8,1a,explicit_inference,5,AC,intermixed,5,correct,3109
8,1a,explicit_inference,6,AC,intermixed,6,correct,2583
8,1a,explicit_inference,7,AC,intermixed,5,correct,2029
8,1a,explicit_inference,8,AC,intermixed,4,correct,1582
8,1a,explicit_inference,9,AC,blocked,2,correct,3942
8,1a,explicit_inference,10,AC,intermixed,6,correct,3733
8,1a,explicit_inference,11,AC,blocked,3,correct,3052
8,1a,explicit_inference,12,AC,blocked,1,correct,3398
9,1a,speeded_recognition,1,AB,intermixed,6,correct,994
9,1a,speeded_recognition,2,AC,blocked,1,correct,1050
9,1a,speeded_recognition,3,BC,intermixed,4,correct,1122
9,1a,speeded_recognition,4,BC,blocked,1,correct,1500
9,1a,speeded_recognition,5,BC,intermixed,4,correct,1152
9,1a,speeded_recognition,6,foil,blocked,N/A,correct,1053
9,1a,speeded_recognition,7,AB,intermixed,5,correct,1322
9,1a,speeded_recognition,8,AC,blocked,1,correct,1761
9,1a,speeded_recognition,9,BC,intermixed,5,correct,1146
9,1a,speeded_recognition,10,BC,blocked,2,correct,1003
9,1a,speeded_recognition,11,foil,intermixed,N/A,correct,1293
9,1a,speeded_recognition,12,AC,intermixed,4,correct,950
9,1a,speeded_recognition,13,foil,blocked,N/A,correct,1087
9,1a,speeded_recognition,14,BC,blocked,3,correct,1044
9,1a,speeded_recognition,15,AC,intermixed,4,correct,1620
9,1a,speeded_recognition,16,foil,blocked,N/A,correct,1158
9,1a,speeded_recognition,17,AB,blocked,3,correct,980
9,1a,speeded_recognition,18,foil,intermixed,N/A,correct,1272
9,1a,speeded_recognition,19,AB,intermixed,4,correct,1059
9,1a,speeded_recognition,20,AB,blocked,2,correct,959
9,1a,speeded_recognition,21,foil,blocked,N/A,correct,902
9,1a,speeded_recognition,22,BC,intermixed,6,correct,1196
9,1a,speeded_recognition,23,AC,blocked,3,correct,1294
9,1a,speeded_recognition,24,foil,intermixed,N/A,correct,1452
9,1a,speeded_recognition,25,AB,intermixed,6,correct,1175
9,1a,speeded_recognition,26,AB,blocked,1,incorrect,884
9,1a,speeded_recognition,27,foil,intermixed,N/A,correct,1463
9,1a,speeded_recognition,28,AB,blocked,2,correct,1316
9,1a,speeded_recognition,29,AC,intermixed,5,correct,1871
9,1a,speeded_recognition,30,BC,blocked,1,correct,1350
9,1a,speeded_recognition,31,foil,intermixed,N/A,correct,1200
9,1a,speeded_recognition,32,AC,blocked,3,correct,1270
9,1a,speeded_recognition,33,AB,intermixed,4,correct,1016
9,1a,speeded_recognition,34,foil,blocked,N/A,correct,1190
9,1a,speeded_recognition,35,foil,blocked,N/A,correct,1107
9,1a,speeded_recognition,36,BC,intermixed,5,correct,1007
9,1a,speeded_recognition,37,foil,intermixed,N/A,correct,1132
9,1a,speeded_recognition,38,AB,blocked,3,correct,1099
9,1a,speeded_recognition,39,BC,intermixed,6,correct,1131
9,1a,speeded_recognition,40,AC,blocked,2,correct,1379
9,1a,speeded_recognition,41,AB,intermixed,5,correct,1482
9,1a,speeded_recognition,42,BC,blocked,3,correct,1279
9,1a,speeded_recognition,43,AC,intermixed,5,correct,1616
9,1a,speeded_recognition,44,AB,blocked,1,correct,1487
9,1a,speeded_recognition,45,AC,intermixed,6,correct,1644
9,1a,speeded_recognition,46,BC,blocked,2,correct,1278
9,1a,speeded_recognition,47,AC,intermixed,6,correct,1364
9,1a,speeded_recognition,48,AC,blocked,2,correct,1541
9,1a,explicit_inference,1,AC,intermixed,4,correct,4198
9,1a,explicit_inference,2,AC,blocked,3,correct,3680
9,1a,explicit_inference,3,AC,blocked,2,correct,2218
9,1a,explicit_inference,4,AC,blocked,1,correct,2875
9,1a,explicit_inference,5,AC,intermixed,6,correct,2417
9,1a,explicit_inference,6,AC,intermixed,5,correct,2334
9,1a,explicit_inference,7,AC,intermixed,6,correct,2278
9,1a,explicit_inference,8,AC,blocked,2,correct,1916
9,1a,explicit_inference,9,AC,blocked,1,correct,1956
9,1a,explicit_inference,10,AC,intermixed,4,correct,1725
9,1a,explicit_inference,11,AC,blocked,3,correct,2082
9,1a,explicit_inference,12,AC,intermixed,5,correct,1953
10,1a,speeded_recognition,1,AC,intermixed,5,incorrect,1762
10,1a,speeded_recognition,2,BC,blocked,2,correct,1260
10,1a,speeded_recognition,3,BC,intermixed,4,correct,1153
10,1a,speeded_recognition,4,foil,intermixed,N/A,correct,1368
10,1a,speeded_recognition,5,AC,blocked,2,correct,1296
10,1a,speeded_recognition,6,foil,intermixed,N/A,correct,1304
10,1a,speeded_recognition,7,AC,intermixed,4,correct,1283
10,1a,speeded_recognition,8,AB,blocked,2,correct,1649
10,1a,speeded_recognition,9,foil,intermixed,N/A,correct,1211
10,1a,speeded_recognition,10,AC,blocked,3,correct,1051
10,1a,speeded_recognition,11,AC,intermixed,6,correct,1434
10,1a,speeded_recognition,12,AC,blocked,3,correct,1170
10,1a,speeded_recognition,13,BC,intermixed,5,correct,1556
10,1a,speeded_recognition,14,BC,blocked,3,correct,1149
10,1a,speeded_recognition,15,AB,intermixed,5,incorrect,2034
10,1a,speeded_recognition,16,AC,blocked,1,correct,1450
10,1a,speeded_recognition,17,AB,intermixed,4,correct,1002
10,1a,speeded_recognition,18,foil,blocked,N/A,incorrect,1371
10,1a,speeded_recognition,19,AB,blocked,2,correct,1380
10,1a,speeded_recognition,20,AC,intermixed,5,correct,1386
10,1a,speeded_recognition,21,foil,blocked,N/A,correct,1340
10,1a,speeded_recognition,22,BC,intermixed,6,correct,905
10,1a,speeded_recognition,23,foil,intermixed,N/A,correct,1403
10,1a,speeded_recognition,24,AB,blocked,1,correct,1475
10,1a,speeded_recognition,25,AB,intermixed,6,correct,1119
10,1a,speeded_recognition,26,foil,blocked,N/A,correct,1279
10,1a,speeded_recognition,27,BC,blocked,1,correct,1022
10,1a,speeded_recognition,28,BC,intermixed,5,correct,1225
10,1a,speeded_recognition,29,foil,blocked,N/A,correct,1507
10,1a,speeded_recognition,30,BC,blocked,2,correct,1196
10,1a,speeded_recognition,31,foil,blocked,N/A,correct,1103
10,1a,speeded_recognition,32,AC,intermixed,6,correct,1306
10,1a,speeded_recognition,33,AB,blocked,3,correct,1529
10,1a,speeded_recognition,34,AB,intermixed,5,incorrect,1620
10,1a,speeded_recognition,35,foil,intermixed,N/A,correct,1095
10,1a,speeded_recognition,36,AB,blocked,3,correct,1095
10,1a,speeded_recognition,37,AB,intermixed,4,correct,1237
10,1a,speeded_recognition,38,BC,blocked,3,correct,974
10,1a,speeded_recognition,39,BC,intermixed,4,correct,844
10,1a,speeded_recognition,40,AB,blocked,1,correct,1672
10,1a,speeded_recognition,41,AB,intermixed,6,correct,1111
10,1a,speeded_recognition,42,AC,blocked,2,correct,1172
10,1a,speeded_recognition,43,BC,intermixed,6,correct,1122
10,1a,speeded_recognition,44,foil,intermixed,N/A,correct,1126
10,1a,speeded_recognition,45,AC,blocked,1,correct,1435
10,1a,speeded_recognition,46,foil,blocked,N/A,correct,1343
10,1a,speeded_recognition,47,AC,intermixed,4,correct,1208
10,1a,speeded_recognition,48,BC,blocked,1,correct,829
10,1a,explicit_inference,1,AC,blocked,1,correct,2378
10,1a,explicit_inference,2,AC,intermixed,5,correct,3047
10,1a,explicit_inference,3,AC,blocked,3,correct,1688
10,1a,explicit_inference,4,AC,blocked,2,correct,2293
10,1a,explicit_inference,5,AC,intermixed,6,correct,2051
10,1a,explicit_inference,6,AC,intermixed,4,correct,1661
10,1a,explicit_inference,7,AC,intermixed,5,correct,2524
10,1a,explicit_inference,8,AC,blocked,2,incorrect,1842
10,1a,explicit_inference,9,AC,blocked,1,correct,2076
10,1a,explicit_inference,10,AC,intermixed,6,correct,1667
10,1a,explicit_inference,11,AC,blocked,3,correct,1796
10,1a,explicit_inference,12,AC,intermixed,4,correct,1545
11,1a,speeded_recognition,1,AC,blocked,1,correct,3257
11,1a,speeded_recognition,2,AC,intermixed,6,correct,3361
11,1a,speeded_recognition,3,foil,blocked,N/A,correct,2818
11,1a,speeded_recognition,4,AB,intermixed,4,correct,2090
11,1a,speeded_recognition,5,foil,intermixed,N/A,correct,1741
11,1a,speeded_recognition,6,AB,blocked,1,correct,1855
11,1a,speeded_recognition,7,foil,blocked,N/A,correct,2624
11,1a,speeded_recognition,8,AB,intermixed,6,correct,1864
11,1a,speeded_recognition,9,AB,blocked,3,correct,3064
11,1a,speeded_recognition,10,AC,intermixed,4,incorrect,2077
11,1a,speeded_recognition,11,BC,blocked,1,correct,1915
11,1a,speeded_recognition,12,AC,intermixed,4,incorrect,2114
11,1a,speeded_recognition,13,BC,blocked,1,correct,2076
11,1a,speeded_recognition,14,BC,intermixed,5,correct,2143
11,1a,speeded_recognition,15,foil,blocked,N/A,N/A,N/A
11,1a,speeded_recognition,16,AB,blocked,2,correct,1952
11,1a,speeded_recognition,17,foil,blocked,N/A,correct,2253
11,1a,speeded_recognition,18,AB,intermixed,6,correct,2020
11,1a,speeded_recognition,19,AC,blocked,2,correct,2677
11,1a,speeded_recognition,20,BC,intermixed,6,correct,1874
11,1a,speeded_recognition,21,BC,blocked,2,correct,1927
11,1a,speeded_recognition,22,AB,intermixed,5,correct,2228
11,1a,speeded_recognition,23,AC,blocked,2,correct,2647
11,1a,speeded_recognition,24,foil,blocked,N/A,correct,2533
11,1a,speeded_recognition,25,AC,intermixed,5,correct,2357
11,1a,speeded_recognition,26,BC,blocked,3,correct,2313
11,1a,speeded_recognition,27,BC,intermixed,6,correct,2566
11,1a,speeded_recognition,28,AB,blocked,1,correct,2478
11,1a,speeded_recognition,29,foil,blocked,N/A,correct,2427
11,1a,speeded_recognition,30,AB,intermixed,5,correct,1973
11,1a,speeded_recognition,31,BC,blocked,3,correct,2210
11,1a,speeded_recognition,32,AC,intermixed,6,N/A,N/A
11,1a,speeded_recognition,33,AC,blocked,1,correct,2810
11,1a,speeded_recognition,34,foil,intermixed,N/A,correct,2713
11,1a,speeded_recognition,35,AC,intermixed,5,correct,2285
11,1a,speeded_recognition,36,BC,blocked,2,correct,1639
11,1a,speeded_recognition,37,foil,intermixed,N/A,correct,2212
11,1a,speeded_recognition,38,AC,blocked,3,correct,1953
11,1a,speeded_recognition,39,BC,intermixed,5,incorrect,2236
11,1a,speeded_recognition,40,foil,intermixed,N/A,correct,2418
11,1a,speeded_recognition,41,AC,blocked,3,correct,2361
11,1a,speeded_recognition,42,BC,intermixed,4,correct,2911
11,1a,speeded_recognition,43,AB,blocked,3,N/A,N/A
11,1a,speeded_recognition,44,foil,intermixed,N/A,correct,1593
11,1a,speeded_recognition,45,AB,intermixed,4,correct,2270
11,1a,speeded_recognition,46,AB,blocked,2,N/A,N/A
11,1a,speeded_recognition,47,foil,intermixed,N/A,correct,1429
11,1a,speeded_recognition,48,BC,intermixed,4,correct,1529
11,1a,explicit_inference,1,AC,blocked,3,correct,3480
11,1a,explicit_inference,2,AC,intermixed,5,incorrect,3517
11,1a,explicit_inference,3,AC,intermixed,4,correct,3569
11,1a,explicit_inference,4,AC,intermixed,6,incorrect,4540
11,1a,explicit_inference,5,AC,blocked,2,correct,6157
11,1a,explicit_inference,6,AC,blocked,1,correct,2650
11,1a,explicit_inference,7,AC,blocked,1,correct,2687
11,1a,explicit_inference,8,AC,blocked,3,correct,5238
11,1a,explicit_inference,9,AC,intermixed,6,correct,3444
11,1a,explicit_inference,10,AC,intermixed,4,correct,4107
11,1a,explicit_inference,11,AC,blocked,2,correct,3745
11,1a,explicit_inference,12,AC,intermixed,5,correct,4361
12,1a,speeded_recognition,1,AB,blocked,1,correct,704
12,1a,speeded_recognition,2,AB,intermixed,4,correct,992
12,1a,speeded_recognition,3,foil,blocked,N/A,correct,1418
12,1a,speeded_recognition,4,foil,intermixed,N/A,correct,1315
12,1a,speeded_recognition,5,AC,blocked,1,correct,1665
12,1a,speeded_recognition,6,AC,intermixed,4,correct,1685
12,1a,speeded_recognition,7,AC,blocked,3,correct,1542
12,1a,speeded_recognition,8,AC,intermixed,5,incorrect,1500
12,1a,speeded_recognition,9,AC,blocked,2,correct,1855
12,1a,speeded_recognition,10,AC,intermixed,6,incorrect,1028
12,1a,speeded_recognition,11,foil,blocked,N/A,correct,1454
12,1a,speeded_recognition,12,foil,intermixed,N/A,correct,1746
12,1a,speeded_recognition,13,AB,intermixed,5,correct,1414
12,1a,speeded_recognition,14,AC,blocked,2,correct,1079
12,1a,speeded_recognition,15,foil,blocked,N/A,incorrect,1074
12,1a,speeded_recognition,16,BC,intermixed,6,correct,1280
12,1a,speeded_recognition,17,AC,blocked,1,correct,1424
12,1a,speeded_recognition,18,AC,intermixed,5,correct,1835
12,1a,speeded_recognition,19,foil,blocked,N/A,correct,1205
12,1a,speeded_recognition,20,AB,blocked,3,correct,1100
12,1a,speeded_recognition,21,AB,intermixed,4,correct,1605
12,1a,speeded_recognition,22,BC,blocked,3,correct,1299
12,1a,speeded_recognition,23,AB,intermixed,5,correct,863
12,1a,speeded_recognition,24,BC,blocked,1,correct,1157
12,1a,speeded_recognition,25,AC,intermixed,6,incorrect,964
12,1a,speeded_recognition,26,AB,blocked,2,incorrect,1748
12,1a,speeded_recognition,27,AB,intermixed,6,correct,923
12,1a,speeded_recognition,28,AC,blocked,3,correct,1464
12,1a,speeded_recognition,29,AC,intermixed,4,correct,1795
12,1a,speeded_recognition,30,AB,blocked,1,correct,1384
12,1a,speeded_recognition,31,BC,intermixed,6,correct,1348
12,1a,speeded_recognition,32,foil,intermixed,N/A,correct,2222
12,1a,speeded_recognition,33,BC,blocked,1,correct,889
12,1a,speeded_recognition,34,foil,blocked,N/A,correct,1492
12,1a,speeded_recognition,35,BC,intermixed,4,correct,1255
12,1a,speeded_recognition,36,BC,blocked,2,correct,884
12,1a,speeded_recognition,37,foil,intermixed,N/A,correct,1745
12,1a,speeded_recognition,38,AB,intermixed,6,correct,1039
12,1a,speeded_recognition,39,AB,blocked,2,incorrect,1761
12,1a,speeded_recognition,40,BC,intermixed,4,correct,1801
12,1a,speeded_recognition,41,foil,intermixed,N/A,correct,1822
12,1a,speeded_recognition,42,BC,blocked,3,correct,1204
12,1a,speeded_recognition,43,BC,intermixed,5,incorrect,2346
12,1a,speeded_recognition,44,BC,blocked,2,correct,868
12,1a,speeded_recognition,45,foil,intermixed,N/A,correct,1624
12,1a,speeded_recognition,46,AB,blocked,3,incorrect,1820
12,1a,speeded_recognition,47,foil,blocked,N/A,correct,1415
12,1a,speeded_recognition,48,BC,intermixed,5,incorrect,1810
12,1a,explicit_inference,1,AC,blocked,1,correct,6771
12,1a,explicit_inference,2,AC,intermixed,5,incorrect,4173
12,1a,explicit_inference,3,AC,intermixed,6,correct,2334
12,1a,explicit_inference,4,AC,blocked,3,incorrect,2529
12,1a,explicit_inference,5,AC,intermixed,4,correct,3749
12,1a,explicit_inference,6,AC,blocked,2,incorrect,4600
12,1a,explicit_inference,7,AC,blocked,1,incorrect,6453
12,1a,explicit_inference,8,AC,intermixed,4,incorrect,2579
12,1a,explicit_inference,9,AC,blocked,3,incorrect,2697
12,1a,explicit_inference,10,AC,blocked,2,incorrect,3726
12,1a,explicit_inference,11,AC,intermixed,6,correct,1446
12,1a,explicit_inference,12,AC,intermixed,5,correct,2225
13,1a,speeded_recognition,1,AC,blocked,3,correct,1521
13,1a,speeded_recognition,2,AB,intermixed,6,incorrect,1729
13,1a,speeded_recognition,3,AC,blocked,1,correct,1387
13,1a,speeded_recognition,4,AC,intermixed,5,correct,2143
13,1a,speeded_recognition,5,AB,blocked,2,correct,1887
13,1a,speeded_recognition,6,BC,intermixed,5,correct,1273
13,1a,speeded_recognition,7,AC,blocked,2,correct,2012
13,1a,speeded_recognition,8,BC,intermixed,6,correct,1647
13,1a,speeded_recognition,9,foil,blocked,N/A,correct,1677
13,1a,speeded_recognition,10,BC,intermixed,5,correct,1242
13,1a,speeded_recognition,11,foil,intermixed,N/A,incorrect,1612
13,1a,speeded_recognition,12,BC,blocked,3,correct,1555
13,1a,speeded_recognition,13,AC,intermixed,6,correct,1396
13,1a,speeded_recognition,14,BC,blocked,1,correct,1365
13,1a,speeded_recognition,15,foil,blocked,N/A,correct,1524
13,1a,speeded_recognition,16,AC,intermixed,6,incorrect,1524
13,1a,speeded_recognition,17,BC,blocked,1,correct,1076
13,1a,speeded_recognition,18,BC,intermixed,4,correct,1222
13,1a,speeded_recognition,19,AC,blocked,2,correct,1444
13,1a,speeded_recognition,20,foil,blocked,N/A,correct,1659
13,1a,speeded_recognition,21,AB,intermixed,4,correct,1138
13,1a,speeded_recognition,22,AC,blocked,3,correct,1429
13,1a,speeded_recognition,23,foil,intermixed,N/A,correct,1773
13,1a,speeded_recognition,24,AC,intermixed,4,correct,1364
13,1a,speeded_recognition,25,AC,blocked,1,correct,1492
13,1a,speeded_recognition,26,foil,intermixed,N/A,correct,1214
13,1a,speeded_recognition,27,BC,intermixed,4,correct,1470
13,1a,speeded_recognition,28,BC,blocked,2,correct,1412
13,1a,speeded_recognition,29,BC,intermixed,6,correct,1211
13,1a,speeded_recognition,30,AB,blocked,3,incorrect,1654
13,1a,speeded_recognition,31,foil,blocked,N/A,correct,1599
13,1a,speeded_recognition,32,AB,intermixed,6,correct,1469
13,1a,speeded_recognition,33,BC,blocked,2,correct,1283
13,1a,speeded_recognition,34,foil,intermixed,N/A,incorrect,2215
13,1a,speeded_recognition,35,AB,blocked,2,correct,1186
13,1a,speeded_recognition,36,foil,blocked,N/A,correct,1234
13,1a,speeded_recognition,37,AC,intermixed,4,correct,1581
13,1a,speeded_recognition,38,foil,intermixed,N/A,correct,1447
13,1a,speeded_recognition,39,BC,blocked,3,correct,1850
13,1a,speeded_recognition,40,AB,intermixed,4,correct,1408
13,1a,speeded_recognition,41,foil,blocked,N/A,correct,1606
13,1a,speeded_recognition,42,AB,blocked,1,incorrect,1806
13,1a,speeded_recognition,43,AC,intermixed,5,correct,2013
13,1a,speeded_recognition,44,foil,intermixed,N/A,correct,2074
13,1a,speeded_recognition,45,AB,blocked,1,incorrect,1847
13,1a,speeded_recognition,46,AB,intermixed,5,incorrect,1882
13,1a,speeded_recognition,47,AB,blocked,3,correct,1524
13,1a,speeded_recognition,48,AB,intermixed,5,correct,1079
13,1a,explicit_inference,1,AC,blocked,2,correct,4931
13,1a,explicit_inference,2,AC,intermixed,6,correct,3261
13,1a,explicit_inference,3,AC,blocked,3,correct,3054
13,1a,explicit_inference,4,AC,blocked,1,correct,4263
13,1a,explicit_inference,5,AC,intermixed,4,correct,2619
13,1a,explicit_inference,6,AC,intermixed,5,correct,3103
13,1a,explicit_inference,7,AC,intermixed,5,correct,3571
13,1a,explicit_inference,8,AC,blocked,3,correct,2796
13,1a,explicit_inference,9,AC,intermixed,6,correct,2787
13,1a,explicit_inference,10,AC,blocked,1,incorrect,3324
13,1a,explicit_inference,11,AC,blocked,2,correct,3971
13,1a,explicit_inference,12,AC,intermixed,4,correct,3843
14,1a,speeded_recognition,1,foil,intermixed,N/A,correct,1814
14,1a,speeded_recognition,2,BC,blocked,1,correct,1253
14,1a,speeded_recognition,3,BC,intermixed,4,correct,1686
14,1a,speeded_recognition,4,foil,blocked,N/A,correct,2069
14,1a,speeded_recognition,5,AC,blocked,1,correct,1719
14,1a,speeded_recognition,6,BC,intermixed,5,correct,1239
14,1a,speeded_recognition,7,foil,blocked,N/A,correct,1605
14,1a,speeded_recognition,8,AC,intermixed,5,correct,1303
14,1a,speeded_recognition,9,AB,blocked,1,correct,2517
14,1a,speeded_recognition,10,foil,intermixed,N/A,correct,2293
14,1a,speeded_recognition,11,AC,blocked,1,correct,2582
14,1a,speeded_recognition,12,BC,intermixed,6,correct,2071
14,1a,speeded_recognition,13,foil,blocked,N/A,correct,1765
14,1a,speeded_recognition,14,AB,intermixed,6,correct,1461
14,1a,speeded_recognition,15,AC,blocked,3,incorrect,2327
14,1a,speeded_recognition,16,AB,intermixed,5,correct,2067
14,1a,speeded_recognition,17,BC,blocked,2,correct,2149
14,1a,speeded_recognition,18,AC,intermixed,6,correct,2360
14,1a,speeded_recognition,19,BC,blocked,1,correct,1414
14,1a,speeded_recognition,20,AC,intermixed,6,correct,3365
14,1a,speeded_recognition,21,AB,blocked,1,incorrect,1845
14,1a,speeded_recognition,22,foil,blocked,N/A,correct,2132
14,1a,speeded_recognition,23,AB,intermixed,4,correct,1989
14,1a,speeded_recognition,24,AB,blocked,2,correct,2085
14,1a,speeded_recognition,25,foil,intermixed,N/A,correct,2066
14,1a,speeded_recognition,26,AB,blocked,3,correct,1685
14,1a,speeded_recognition,27,AC,intermixed,4,correct,2566
14,1a,speeded_recognition,28,foil,blocked,N/A,correct,1940
14,1a,speeded_recognition,29,AC,blocked,2,correct,1877
14,1a,speeded_recognition,30,AB,intermixed,4,correct,1463
14,1a,speeded_recognition,31,foil,intermixed,N/A,correct,1317
14,1a,speeded_recognition,32,BC,blocked,3,correct,1365
14,1a,speeded_recognition,33,BC,intermixed,4,incorrect,2053
14,1a,speeded_recognition,34,AB,blocked,2,correct,1445
14,1a,speeded_recognition,35,BC,intermixed,6,incorrect,2279
14,1a,speeded_recognition,36,AC,blocked,3,correct,1526
14,1a,speeded_recognition,37,AC,intermixed,5,correct,2470
14,1a,speeded_recognition,38,BC,blocked,3,correct,1478
14,1a,speeded_recognition,39,AB,intermixed,6,correct,1668
14,1a,speeded_recognition,40,AB,blocked,3,correct,1270
14,1a,speeded_recognition,41,BC,intermixed,5,incorrect,1701
14,1a,speeded_recognition,42,foil,intermixed,N/A,correct,1127
14,1a,speeded_recognition,43,AC,blocked,2,correct,1781
14,1a,speeded_recognition,44,foil,intermixed,N/A,correct,1285
14,1a,speeded_recognition,45,AB,intermixed,5,correct,1637
14,1a,speeded_recognition,46,foil,blocked,N/A,correct,1302
14,1a,speeded_recognition,47,BC,blocked,2,correct,1334
14,1a,speeded_recognition,48,AC,intermixed,4,correct,1524
14,1a,explicit_inference,1,AC,intermixed,5,correct,6462
14,1a,explicit_inference,2,AC,intermixed,4,incorrect,6558
14,1a,explicit_inference,3,AC,blocked,3,correct,3263
14,1a,explicit_inference,4,AC,blocked,2,correct,3486
14,1a,explicit_inference,5,AC,blocked,1,correct,4095
14,1a,explicit_inference,6,AC,intermixed,6,correct,2878
14,1a,explicit_inference,7,AC,intermixed,6,correct,3194
14,1a,explicit_inference,8,AC,intermixed,4,correct,4366
14,1a,explicit_inference,9,AC,blocked,1,correct,2511
14,1a,explicit_inference,10,AC,blocked,3,correct,2333
14,1a,explicit_inference,11,AC,blocked,2,correct,2046
14,1a,explicit_inference,12,AC,intermixed,5,incorrect,3597
15,1a,speeded_recognition,1,foil,blocked,N/A,correct,2468
15,1a,speeded_recognition,2,BC,intermixed,4,correct,1002
15,1a,speeded_recognition,3,AC,blocked,1,correct,1401
15,1a,speeded_recognition,4,BC,intermixed,6,correct,1525
15,1a,speeded_recognition,5,foil,blocked,N/A,correct,1664
15,1a,speeded_recognition,6,BC,blocked,1,correct,1358
15,1a,speeded_recognition,7,AC,intermixed,5,correct,1445
15,1a,speeded_recognition,8,AC,blocked,2,correct,1377
15,1a,speeded_recognition,9,AC,intermixed,6,incorrect,1165
15,1a,speeded_recognition,10,BC,blocked,2,correct,1335
15,1a,speeded_recognition,11,foil,intermixed,N/A,correct,1409
15,1a,speeded_recognition,12,AC,blocked,1,correct,1487
15,1a,speeded_recognition,13,foil,intermixed,N/A,correct,1541
15,1a,speeded_recognition,14,foil,blocked,N/A,correct,1665
15,1a,speeded_recognition,15,AB,intermixed,5,correct,1263
15,1a,speeded_recognition,16,AB,blocked,1,incorrect,1831
15,1a,speeded_recognition,17,AB,intermixed,6,correct,1134
15,1a,speeded_recognition,18,foil,intermixed,N/A,correct,1360
15,1a,speeded_recognition,19,AB,blocked,2,correct,2069
15,1a,speeded_recognition,20,AC,intermixed,4,correct,1835
15,1a,speeded_recognition,21,AB,blocked,3,correct,1432
15,1a,speeded_recognition,22,BC,intermixed,6,correct,1231
15,1a,speeded_recognition,23,BC,blocked,3,correct,1288
15,1a,speeded_recognition,24,AC,intermixed,5,correct,1272
15,1a,speeded_recognition,25,foil,intermixed,N/A,correct,1727
15,1a,speeded_recognition,26,BC,blocked,1,correct,1271
15,1a,speeded_recognition,27,BC,intermixed,4,correct,1307
15,1a,speeded_recognition,28,AC,blocked,3,correct,1021
15,1a,speeded_recognition,29,AB,intermixed,4,incorrect,861
15,1a,speeded_recognition,30,foil,blocked,N/A,correct,1636
15,1a,speeded_recognition,31,AB,blocked,1,correct,1438
15,1a,speeded_recognition,32,AB,intermixed,4,correct,1175
15,1a,speeded_recognition,33,AC,blocked,3,correct,1655
15,1a,speeded_recognition,34,AB,intermixed,6,correct,1231
15,1a,speeded_recognition,35,AB,blocked,3,correct,1218
15,1a,speeded_recognition,36,BC,intermixed,5,correct,1079
15,1a,speeded_recognition,37,foil,blocked,N/A,correct,1298
15,1a,speeded_recognition,38,AC,intermixed,6,correct,1677
15,1a,speeded_recognition,39,AB,blocked,2,correct,1088
15,1a,speeded_recognition,40,AB,intermixed,5,correct,1111
15,1a,speeded_recognition,41,foil,intermixed,N/A,correct,1348
15,1a,speeded_recognition,42,AC,blocked,2,incorrect,1422
15,1a,speeded_recognition,43,foil,blocked,N/A,correct,1565
15,1a,speeded_recognition,44,BC,blocked,3,correct,1285
15,1a,speeded_recognition,45,AC,intermixed,4,correct,2000
15,1a,speeded_recognition,46,BC,blocked,2,correct,925
15,1a,speeded_recognition,47,BC,intermixed,5,correct,2193
15,1a,speeded_recognition,48,foil,intermixed,N/A,correct,1253
15,1a,explicit_inference,1,AC,intermixed,5,correct,4709
15,1a,explicit_inference,2,AC,intermixed,6,correct,4355
15,1a,explicit_inference,3,AC,blocked,3,correct,2694
15,1a,explicit_inference,4,AC,intermixed,4,incorrect,3194
15,1a,explicit_inference,5,AC,blocked,1,correct,2630
15,1a,explicit_inference,6,AC,blocked,2,correct,2363
15,1a,explicit_inference,7,AC,blocked,1,correct,2593
15,1a,explicit_inference,8,AC,intermixed,4,correct,2485
15,1a,explicit_inference,9,AC,intermixed,6,correct,2220
15,1a,explicit_inference,10,AC,blocked,2,correct,3098
15,1a,explicit_inference,11,AC,intermixed,5,incorrect,2452
15,1a,explicit_inference,12,AC,blocked,3,correct,2396
16,1a,speeded_recognition,1,foil,blocked,N/A,correct,1040
16,1a,speeded_recognition,2,BC,blocked,1,correct,1040
16,1a,speeded_recognition,3,AC,intermixed,5,correct,1124
16,1a,speeded_recognition,4,AB,blocked,2,correct,732
16,1a,speeded_recognition,5,foil,intermixed,N/A,correct,1154
16,1a,speeded_recognition,6,foil,intermixed,N/A,correct,1219
16,1a,speeded_recognition,7,AC,blocked,2,correct,1144
16,1a,speeded_recognition,8,AC,intermixed,5,correct,1340
16,1a,speeded_recognition,9,BC,blocked,2,correct,989
16,1a,speeded_recognition,10,AB,intermixed,6,correct,917
16,1a,speeded_recognition,11,AC,blocked,3,correct,1008
16,1a,speeded_recognition,12,foil,intermixed,N/A,correct,1736
16,1a,speeded_recognition,13,BC,blocked,3,correct,808
16,1a,speeded_recognition,14,AC,intermixed,4,correct,1255
16,1a,speeded_recognition,15,BC,blocked,3,correct,812
16,1a,speeded_recognition,16,foil,intermixed,N/A,correct,888
16,1a,speeded_recognition,17,AB,blocked,3,correct,1333
16,1a,speeded_recognition,18,AB,intermixed,4,correct,1421
16,1a,speeded_recognition,19,AC,blocked,1,correct,934
16,1a,speeded_recognition,20,BC,intermixed,4,correct,880
16,1a,speeded_recognition,21,AB,blocked,1,correct,1198
16,1a,speeded_recognition,22,foil,intermixed,N/A,correct,912
16,1a,speeded_recognition,23,AB,intermixed,5,correct,1168
16,1a,speeded_recognition,24,foil,blocked,N/A,correct,1099
16,1a,speeded_recognition,25,BC,intermixed,6,correct,809
16,1a,speeded_recognition,26,AC,blocked,2,correct,844
16,1a,speeded_recognition,27,BC,intermixed,4,correct,772
16,1a,speeded_recognition,28,foil,blocked,N/A,correct,997
16,1a,speeded_recognition,29,AC,intermixed,6,correct,979
16,1a,speeded_recognition,30,foil,blocked,N/A,correct,879
16,1a,speeded_recognition,31,AC,intermixed,6,correct,1214
16,1a,speeded_recognition,32,AB,blocked,3,correct,915
16,1a,speeded_recognition,33,BC,intermixed,5,correct,868
16,1a,speeded_recognition,34,BC,blocked,2,correct,693
16,1a,speeded_recognition,35,BC,intermixed,5,correct,713
16,1a,speeded_recognition,36,foil,intermixed,N/A,correct,989
16,1a,speeded_recognition,37,BC,blocked,1,correct,1124
16,1a,speeded_recognition,38,AC,intermixed,4,correct,1074
16,1a,speeded_recognition,39,foil,blocked,N/A,correct,917
16,1a,speeded_recognition,40,AB,intermixed,5,correct,893
16,1a,speeded_recognition,41,AB,blocked,1,correct,1028
16,1a,speeded_recognition,42,AB,intermixed,4,correct,1153
16,1a,speeded_recognition,43,AC,blocked,3,correct,899
16,1a,speeded_recognition,44,BC,intermixed,6,correct,678
16,1a,speeded_recognition,45,AB,blocked,2,incorrect,2362
16,1a,speeded_recognition,46,foil,blocked,N/A,correct,904
16,1a,speeded_recognition,47,AB,intermixed,6,correct,755
16,1a,speeded_recognition,48,AC,blocked,1,correct,1044
16,1a,explicit_inference,1,AC,blocked,2,incorrect,5483
16,1a,explicit_inference,2,AC,blocked,1,correct,2803
16,1a,explicit_inference,3,AC,intermixed,4,correct,2989
16,1a,explicit_inference,4,AC,intermixed,6,incorrect,2348
16,1a,explicit_inference,5,AC,intermixed,5,correct,3145
16,1a,explicit_inference,6,AC,blocked,3,incorrect,2695
16,1a,explicit_inference,7,AC,blocked,1,incorrect,3703
16,1a,explicit_inference,8,AC,intermixed,6,correct,2031
16,1a,explicit_inference,9,AC,blocked,2,correct,3446
16,1a,explicit_inference,10,AC,intermixed,5,incorrect,2255
16,1a,explicit_inference,11,AC,intermixed,4,correct,2502
16,1a,explicit_inference,12,AC,blocked,3,correct,2239
17,1a,speeded_recognition,1,BC,blocked,2,correct,917
17,1a,speeded_recognition,2,AB,intermixed,5,correct,1379
17,1a,speeded_recognition,3,BC,blocked,2,correct,1229
17,1a,speeded_recognition,4,foil,blocked,N/A,correct,1813
17,1a,speeded_recognition,5,AB,blocked,2,correct,1330
17,1a,speeded_recognition,6,BC,intermixed,5,correct,1624
17,1a,speeded_recognition,7,BC,blocked,1,correct,1505
17,1a,speeded_recognition,8,AB,intermixed,6,correct,1060
17,1a,speeded_recognition,9,AB,blocked,3,correct,1115
17,1a,speeded_recognition,10,BC,intermixed,4,correct,1174
17,1a,speeded_recognition,11,AC,blocked,3,correct,1495
17,1a,speeded_recognition,12,BC,intermixed,5,correct,1773
17,1a,speeded_recognition,13,AC,blocked,2,correct,1912
17,1a,speeded_recognition,14,AB,intermixed,5,correct,1789
17,1a,speeded_recognition,15,foil,intermixed,N/A,correct,1878
17,1a,speeded_recognition,16,AB,intermixed,4,correct,1905
17,1a,speeded_recognition,17,AC,blocked,3,correct,1562
17,1a,speeded_recognition,18,AC,intermixed,5,correct,1803
17,1a,speeded_recognition,19,AB,blocked,3,correct,1226
17,1a,speeded_recognition,20,foil,intermixed,N/A,correct,1465
17,1a,speeded_recognition,21,AC,intermixed,6,incorrect,1120
17,1a,speeded_recognition,22,foil,blocked,N/A,correct,1734
17,1a,speeded_recognition,23,AC,intermixed,6,incorrect,1953
17,1a,speeded_recognition,24,AC,blocked,2,correct,1426
17,1a,speeded_recognition,25,foil,intermixed,N/A,correct,1801
17,1a,speeded_recognition,26,AC,intermixed,4,correct,1602
17,1a,speeded_recognition,27,AC,blocked,1,correct,1950
17,1a,speeded_recognition,28,foil,blocked,N/A,correct,1222
17,1a,speeded_recognition,29,AC,intermixed,4,correct,1084
17,1a,speeded_recognition,30,AB,blocked,1,correct,1118
17,1a,speeded_recognition,31,foil,intermixed,N/A,correct,924
17,1a,speeded_recognition,32,AC,intermixed,5,correct,1824
17,1a,speeded_recognition,33,foil,blocked,N/A,correct,1950
17,1a,speeded_recognition,34,AB,blocked,2,correct,1152
17,1a,speeded_recognition,35,BC,intermixed,6,correct,1645
17,1a,speeded_recognition,36,BC,blocked,3,correct,1587
17,1a,speeded_recognition,37,foil,intermixed,N/A,correct,1161
17,1a,speeded_recognition,38,AB,intermixed,6,correct,1015
17,1a,speeded_recognition,39,AB,blocked,1,correct,1309
17,1a,speeded_recognition,40,BC,intermixed,6,correct,1463
17,1a,speeded_recognition,41,BC,blocked,1,correct,1828
17,1a,speeded_recognition,42,foil,blocked,N/A,correct,1135
17,1a,speeded_recognition,43,BC,intermixed,4,correct,1972
17,1a,speeded_recognition,44,AC,blocked,1,correct,1702
17,1a,speeded_recognition,45,foil,intermixed,N/A,correct,1874
17,1a,speeded_recognition,46,AB,intermixed,4,correct,1776
17,1a,speeded_recognition,47,foil,blocked,N/A,correct,1988
17,1a,speeded_recognition,48,BC,blocked,3,correct,1589
17,1a,explicit_inference,1,AC,blocked,2,incorrect,3396
17,1a,explicit_inference,2,AC,blocked,3,incorrect,2632
17,1a,explicit_inference,3,AC,blocked,1,incorrect,3709
17,1a,explicit_inference,4,AC,intermixed,5,correct,3406
17,1a,explicit_inference,5,AC,intermixed,6,correct,2275
17,1a,explicit_inference,6,AC,intermixed,4,correct,2445
17,1a,explicit_inference,7,AC,blocked,1,incorrect,2165
17,1a,explicit_inference,8,AC,blocked,3,incorrect,2222
17,1a,explicit_inference,9,AC,intermixed,4,correct,2563
17,1a,explicit_inference,10,AC,intermixed,6,correct,2796
17,1a,explicit_inference,11,AC,intermixed,5,correct,2587
17,1a,explicit_inference,12,AC,blocked,2,incorrect,2382
18,1a,speeded_recognition,1,AC,intermixed,4,correct,1288
18,1a,speeded_recognition,2,AC,blocked,3,correct,2089
18,1a,speeded_recognition,3,BC,intermixed,6,correct,1472
18,1a,speeded_recognition,4,BC,blocked,2,correct,1088
18,1a,speeded_recognition,5,AC,intermixed,6,correct,910
18,1a,speeded_recognition,6,AC,blocked,1,correct,1160
18,1a,speeded_recognition,7,foil,blocked,N/A,correct,1360
18,1a,speeded_recognition,8,AB,blocked,1,correct,1065
18,1a,speeded_recognition,9,AC,intermixed,4,correct,1054
18,1a,speeded_recognition,10,AB,blocked,2,correct,847
18,1a,speeded_recognition,11,foil,intermixed,N/A,correct,1254
18,1a,speeded_recognition,12,AB,intermixed,6,correct,785
18,1a,speeded_recognition,13,AC,blocked,2,correct,1320
18,1a,speeded_recognition,14,BC,intermixed,5,correct,960
18,1a,speeded_recognition,15,AB,blocked,1,correct,831
18,1a,speeded_recognition,16,BC,intermixed,5,correct,920
18,1a,speeded_recognition,17,AB,blocked,3,correct,760
18,1a,speeded_recognition,18,foil,blocked,N/A,correct,1038
18,1a,speeded_recognition,19,AB,intermixed,6,correct,793
18,1a,speeded_recognition,20,BC,blocked,1,correct,1064
18,1a,speeded_recognition,21,BC,intermixed,4,correct,871
18,1a,speeded_recognition,22,foil,intermixed,N/A,correct,1006
18,1a,speeded_recognition,23,AC,blocked,1,correct,1042
18,1a,speeded_recognition,24,foil,intermixed,N/A,correct,848
18,1a,speeded_recognition,25,BC,intermixed,4,correct,814
18,1a,speeded_recognition,26,AB,blocked,2,correct,959
18,1a,speeded_recognition,27,foil,blocked,N/A,correct,959
18,1a,speeded_recognition,28,AB,intermixed,4,correct,761
18,1a,speeded_recognition,29,AC,blocked,2,incorrect,880
18,1a,speeded_recognition,30,AC,intermixed,6,correct,896
18,1a,speeded_recognition,31,foil,blocked,N/A,correct,1423
18,1a,speeded_recognition,32,AB,intermixed,5,correct,776
18,1a,speeded_recognition,33,BC,blocked,2,correct,934
18,1a,speeded_recognition,34,AC,intermixed,5,correct,1376
18,1a,speeded_recognition,35,BC,blocked,3,correct,912
18,1a,speeded_recognition,36,AB,intermixed,5,correct,744
18,1a,speeded_recognition,37,foil,intermixed,N/A,correct,990
18,1a,speeded_recognition,38,BC,blocked,3,correct,697
18,1a,speeded_recognition,39,foil,blocked,N/A,correct,903
18,1a,speeded_recognition,40,foil,blocked,N/A,correct,1415
18,1a,speeded_recognition,41,AB,intermixed,4,correct,718
18,1a,speeded_recognition,42,foil,intermixed,N/A,correct,936
18,1a,speeded_recognition,43,BC,blocked,1,correct,1073
18,1a,speeded_recognition,44,BC,intermixed,6,correct,776
18,1a,speeded_recognition,45,AC,blocked,3,correct,814
18,1a,speeded_recognition,46,foil,intermixed,N/A,correct,748
18,1a,speeded_recognition,47,AC,intermixed,5,correct,1192
18,1a,speeded_recognition,48,AB,blocked,3,correct,760
18,1a,explicit_inference,1,AC,blocked,1,correct,2482
18,1a,explicit_inference,2,AC,blocked,2,correct,1742
18,1a,explicit_inference,3,AC,intermixed,5,correct,1853
18,1a,explicit_inference,4,AC,blocked,3,correct,2117
18,1a,explicit_inference,5,AC,intermixed,6,correct,1264
18,1a,explicit_inference,6,AC,intermixed,4,correct,3656
18,1a,explicit_inference,7,AC,blocked,3,correct,1341
18,1a,explicit_inference,8,AC,blocked,1,correct,2468
18,1a,explicit_inference,9,AC,intermixed,4,correct,1283
18,1a,explicit_inference,10,AC,blocked,2,correct,1491
18,1a,explicit_inference,11,AC,intermixed,6,correct,1843
18,1a,explicit_inference,12,AC,intermixed,5,correct,2089
19,1a,speeded_recognition,1,BC,blocked,1,correct,1053
19,1a,speeded_recognition,2,AB,intermixed,5,incorrect,2067
19,1a,speeded_recognition,3,AB,blocked,1,incorrect,1994
19,1a,speeded_recognition,4,foil,blocked,N/A,correct,1509
19,1a,speeded_recognition,5,BC,intermixed,6,correct,1290
19,1a,speeded_recognition,6,AB,blocked,2,correct,1461
19,1a,speeded_recognition,7,BC,intermixed,5,correct,815
19,1a,speeded_recognition,8,foil,blocked,N/A,correct,1501
19,1a,speeded_recognition,9,AC,intermixed,4,correct,1159
19,1a,speeded_recognition,10,AB,blocked,2,correct,828
19,1a,speeded_recognition,11,AC,intermixed,5,correct,1306
19,1a,speeded_recognition,12,AC,blocked,1,correct,889
19,1a,speeded_recognition,13,foil,intermixed,N/A,correct,877
19,1a,speeded_recognition,14,AB,intermixed,4,incorrect,1274
19,1a,speeded_recognition,15,BC,blocked,3,correct,890
19,1a,speeded_recognition,16,foil,intermixed,N/A,correct,857
19,1a,speeded_recognition,17,AB,intermixed,4,correct,1257
19,1a,speeded_recognition,18,AC,blocked,1,correct,1028
19,1a,speeded_recognition,19,AC,intermixed,4,correct,768
19,1a,speeded_recognition,20,foil,blocked,N/A,correct,791
19,1a,speeded_recognition,21,BC,blocked,3,correct,834
19,1a,speeded_recognition,22,foil,blocked,N/A,correct,1221
19,1a,speeded_recognition,23,AC,intermixed,5,correct,922
19,1a,speeded_recognition,24,BC,blocked,2,correct,808
19,1a,speeded_recognition,25,foil,intermixed,N/A,correct,800
19,1a,speeded_recognition,26,AC,blocked,2,correct,718
19,1a,speeded_recognition,27,AC,intermixed,6,correct,706
19,1a,speeded_recognition,28,BC,blocked,1,correct,844
19,1a,speeded_recognition,29,AB,intermixed,6,correct,967
19,1a,speeded_recognition,30,foil,intermixed,N/A,correct,1074
19,1a,speeded_recognition,31,AC,blocked,2,correct,760
19,1a,speeded_recognition,32,BC,intermixed,6,correct,915
19,1a,speeded_recognition,33,AB,blocked,3,correct,828
19,1a,speeded_recognition,34,BC,intermixed,4,incorrect,1066
19,1a,speeded_recognition,35,foil,blocked,N/A,correct,1008
19,1a,speeded_recognition,36,AC,blocked,3,correct,1286
19,1a,speeded_recognition,37,foil,intermixed,N/A,correct,1107
19,1a,speeded_recognition,38,BC,intermixed,5,correct,929
19,1a,speeded_recognition,39,AB,blocked,3,correct,713
19,1a,speeded_recognition,40,AB,intermixed,5,incorrect,1936
19,1a,speeded_recognition,41,AC,blocked,3,correct,1591
19,1a,speeded_recognition,42,AC,intermixed,6,correct,1274
19,1a,speeded_recognition,43,BC,blocked,2,correct,1004
19,1a,speeded_recognition,44,BC,intermixed,4,correct,1269
19,1a,speeded_recognition,45,foil,blocked,N/A,correct,1090
19,1a,speeded_recognition,46,AB,blocked,1,incorrect,960
19,1a,speeded_recognition,47,foil,intermixed,N/A,correct,1151
19,1a,speeded_recognition,48,AB,intermixed,6,correct,1241
19,1a,explicit_inference,1,AC,blocked,3,correct,2493
19,1a,explicit_inference,2,AC,intermixed,5,correct,1687
19,1a,explicit_inference,3,AC,blocked,1,incorrect,2695
19,1a,explicit_inference,4,AC,blocked,2,incorrect,3088
19,1a,explicit_inference,5,AC,intermixed,6,correct,2559
19,1a,explicit_inference,6,AC,intermixed,4,incorrect,2221
19,1a,explicit_inference,7,AC,intermixed,4,correct,2277
19,1a,explicit_inference,8,AC,intermixed,6,correct,2040
19,1a,explicit_inference,9,AC,blocked,3,correct,2254
19,1a,explicit_inference,10,AC,blocked,2,correct,2847
19,1a,explicit_inference,11,AC,intermixed,5,correct,2126
19,1a,explicit_inference,12,AC,blocked,1,correct,2606
20,1a,speeded_recognition,1,AC,blocked,2,correct,1410
20,1a,speeded_recognition,2,AC,intermixed,6,correct,1621
20,1a,speeded_recognition,3,BC,blocked,1,correct,1398
20,1a,speeded_recognition,4,BC,intermixed,4,correct,1219
20,1a,speeded_recognition,5,BC,blocked,3,correct,1269
20,1a,speeded_recognition,6,BC,intermixed,6,correct,1258
20,1a,speeded_recognition,7,AB,blocked,2,correct,1816
20,1a,speeded_recognition,8,foil,blocked,N/A,correct,1357
20,1a,speeded_recognition,9,AB,intermixed,6,correct,1248
20,1a,speeded_recognition,10,AC,blocked,1,correct,1177
20,1a,speeded_recognition,11,BC,intermixed,4,correct,969
20,1a,speeded_recognition,12,AB,blocked,3,incorrect,1995
20,1a,speeded_recognition,13,AB,intermixed,5,correct,1326
20,1a,speeded_recognition,14,BC,blocked,3,correct,1030
20,1a,speeded_recognition,15,foil,intermixed,N/A,correct,1457
20,1a,speeded_recognition,16,AC,intermixed,5,incorrect,1512
20,1a,speeded_recognition,17,AC,blocked,3,correct,1101
20,1a,speeded_recognition,18,BC,intermixed,5,incorrect,1495
20,1a,speeded_recognition,19,foil,blocked,N/A,correct,1304
20,1a,speeded_recognition,20,foil,intermixed,N/A,correct,1406
20,1a,speeded_recognition,21,AC,blocked,2,correct,1247
20,1a,speeded_recognition,22,BC,intermixed,6,correct,1225
20,1a,speeded_recognition,23,AB,blocked,3,correct,1277
20,1a,speeded_recognition,24,AC,intermixed,5,correct,2409
20,1a,speeded_recognition,25,foil,blocked,N/A,correct,1246
20,1a,speeded_recognition,26,foil,blocked,N/A,correct,1200
20,1a,speeded_recognition,27,AB,intermixed,5,correct,1373
20,1a,speeded_recognition,28,BC,blocked,2,correct,1360
20,1a,speeded_recognition,29,AC,intermixed,6,correct,1399
20,1a,speeded_recognition,30,AB,blocked,1,correct,1373
20,1a,speeded_recognition,31,AB,intermixed,6,correct,1259
20,1a,speeded_recognition,32,AC,blocked,1,correct,1231
20,1a,speeded_recognition,33,foil,intermixed,N/A,correct,1308
20,1a,speeded_recognition,34,AC,intermixed,4,correct,2080
20,1a,speeded_recognition,35,AB,blocked,1,correct,1138
20,1a,speeded_recognition,36,foil,intermixed,N/A,correct,1530
20,1a,speeded_recognition,37,AC,blocked,3,correct,1386
20,1a,speeded_recognition,38,foil,intermixed,N/A,correct,1393
20,1a,speeded_recognition,39,AC,intermixed,4,incorrect,1582
20,1a,speeded_recognition,40,AB,blocked,2,correct,1282
20,1a,speeded_recognition,41,BC,intermixed,5,correct,2599
20,1a,speeded_recognition,42,foil,intermixed,N/A,correct,1353
20,1a,speeded_recognition,43,BC,blocked,2,correct,1342
20,1a,speeded_recognition,44,AB,intermixed,4,correct,1297
20,1a,speeded_recognition,45,foil,blocked,N/A,correct,1234
20,1a,speeded_recognition,46,BC,blocked,1,correct,1066
20,1a,speeded_recognition,47,AB,intermixed,4,correct,1058
20,1a,speeded_recognition,48,foil,blocked,N/A,correct,1327
20,1a,explicit_inference,1,AC,blocked,1,correct,3812
20,1a,explicit_inference,2,AC,blocked,3,correct,3272
20,1a,explicit_inference,3,AC,intermixed,4,correct,3714
20,1a,explicit_inference,4,AC,blocked,2,correct,2887
20,1a,explicit_inference,5,AC,intermixed,6,correct,2310
20,1a,explicit_inference,6,AC,intermixed,5,incorrect,3911
20,1a,explicit_inference,7,AC,intermixed,6,correct,2950
20,1a,explicit_inference,8,AC,blocked,2,correct,2518
20,1a,explicit_inference,9,AC,intermixed,5,correct,2048
20,1a,explicit_inference,10,AC,blocked,3,correct,2654
20,1a,explicit_inference,11,AC,blocked,1,correct,4222
20,1a,explicit_inference,12,AC,intermixed,4,correct,3003
21,1a,speeded_recognition,1,BC,blocked,2,incorrect,1368
21,1a,speeded_recognition,2,AB,intermixed,5,correct,1312
21,1a,speeded_recognition,3,BC,blocked,1,correct,1713
21,1a,speeded_recognition,4,BC,intermixed,5,correct,1224
21,1a,speeded_recognition,5,AC,blocked,1,correct,1824
21,1a,speeded_recognition,6,BC,intermixed,6,correct,1280
21,1a,speeded_recognition,7,foil,intermixed,N/A,correct,2152
21,1a,speeded_recognition,8,BC,blocked,3,correct,1704
21,1a,speeded_recognition,9,BC,intermixed,6,correct,1415
21,1a,speeded_recognition,10,AC,blocked,1,correct,2537
21,1a,speeded_recognition,11,AC,intermixed,4,correct,2696
21,1a,speeded_recognition,12,foil,blocked,N/A,correct,1847
21,1a,speeded_recognition,13,AB,intermixed,6,correct,2009
21,1a,speeded_recognition,14,AC,blocked,2,correct,2128
21,1a,speeded_recognition,15,AB,intermixed,4,correct,1543
21,1a,speeded_recognition,16,foil,blocked,N/A,correct,2161
21,1a,speeded_recognition,17,AC,intermixed,6,correct,2336
21,1a,speeded_recognition,18,BC,blocked,3,correct,1695
21,1a,speeded_recognition,19,foil,blocked,N/A,correct,2013
21,1a,speeded_recognition,20,foil,blocked,N/A,correct,1832
21,1a,speeded_recognition,21,AB,blocked,2,incorrect,2968
21,1a,speeded_recognition,22,AB,intermixed,6,correct,2024
21,1a,speeded_recognition,23,AC,blocked,3,correct,2216
21,1a,speeded_recognition,24,foil,intermixed,N/A,correct,2256
21,1a,speeded_recognition,25,AB,blocked,3,correct,2968
21,1a,speeded_recognition,26,AC,intermixed,6,correct,1808
21,1a,speeded_recognition,27,AB,blocked,1,correct,2352
21,1a,speeded_recognition,28,foil,blocked,N/A,correct,3367
21,1a,speeded_recognition,29,BC,intermixed,4,correct,1512
21,1a,speeded_recognition,30,AB,blocked,2,correct,2381
21,1a,speeded_recognition,31,AC,intermixed,5,incorrect,1871
21,1a,speeded_recognition,32,BC,blocked,1,correct,1769
21,1a,speeded_recognition,33,AC,intermixed,5,incorrect,1768
21,1a,speeded_recognition,34,AB,blocked,1,correct,2303
21,1a,speeded_recognition,35,BC,intermixed,5,correct,1352
21,1a,speeded_recognition,36,foil,intermixed,N/A,incorrect,1704
21,1a,speeded_recognition,37,AC,blocked,3,correct,2167
21,1a,speeded_recognition,38,BC,intermixed,4,correct,1896
21,1a,speeded_recognition,39,foil,intermixed,N/A,correct,1360
21,1a,speeded_recognition,40,foil,blocked,N/A,correct,1375
21,1a,speeded_recognition,41,AB,intermixed,5,correct,1265
21,1a,speeded_recognition,42,BC,blocked,2,correct,1904
21,1a,speeded_recognition,43,foil,intermixed,N/A,correct,1856
21,1a,speeded_recognition,44,AB,intermixed,4,incorrect,2409
21,1a,speeded_recognition,45,AC,blocked,2,correct,2600
21,1a,speeded_recognition,46,foil,intermixed,N/A,correct,1392
21,1a,speeded_recognition,47,AC,intermixed,4,correct,1879
21,1a,speeded_recognition,48,AB,blocked,3,correct,2488
21,1a,explicit_inference,1,AC,blocked,3,incorrect,6737
21,1a,explicit_inference,2,AC,intermixed,5,correct,3580
21,1a,explicit_inference,3,AC,blocked,2,correct,5135
21,1a,explicit_inference,4,AC,intermixed,6,correct,3258
21,1a,explicit_inference,5,AC,intermixed,4,correct,4079
21,1a,explicit_inference,6,AC,blocked,1,correct,3459
21,1a,explicit_inference,7,AC,intermixed,5,correct,3204
21,1a,explicit_inference,8,AC,blocked,1,correct,2688
21,1a,explicit_inference,9,AC,intermixed,6,correct,2294
21,1a,explicit_inference,10,AC,intermixed,4,correct,1904
21,1a,explicit_inference,11,AC,blocked,2,correct,5145
21,1a,explicit_inference,12,AC,blocked,3,incorrect,3228
22,1a,speeded_recognition,1,BC,blocked,1,correct,1811
22,1a,speeded_recognition,2,foil,intermixed,N/A,correct,1440
22,1a,speeded_recognition,3,AB,intermixed,5,correct,1046
22,1a,speeded_recognition,4,AC,blocked,1,correct,1099
22,1a,speeded_recognition,5,BC,intermixed,5,correct,1375
22,1a,speeded_recognition,6,AB,blocked,1,correct,931
22,1a,speeded_recognition,7,foil,blocked,N/A,correct,1269
22,1a,speeded_recognition,8,BC,intermixed,4,correct,917
22,1a,speeded_recognition,9,AB,blocked,2,correct,1035
22,1a,speeded_recognition,10,foil,blocked,N/A,correct,990
22,1a,speeded_recognition,11,foil,intermixed,N/A,correct,1203
22,1a,speeded_recognition,12,BC,intermixed,6,correct,1241
22,1a,speeded_recognition,13,AB,blocked,3,correct,1391
22,1a,speeded_recognition,14,AB,intermixed,6,correct,1531
22,1a,speeded_recognition,15,AB,blocked,2,correct,999
22,1a,speeded_recognition,16,AC,intermixed,4,correct,1090
22,1a,speeded_recognition,17,foil,intermixed,N/A,correct,1239
22,1a,speeded_recognition,18,foil,blocked,N/A,correct,1454
22,1a,speeded_recognition,19,foil,blocked,N/A,correct,1008
22,1a,speeded_recognition,20,AB,blocked,1,correct,770
22,1a,speeded_recognition,21,BC,intermixed,4,correct,657
22,1a,speeded_recognition,22,AC,blocked,3,correct,1293
22,1a,speeded_recognition,23,AB,intermixed,6,correct,1037
22,1a,speeded_recognition,24,foil,blocked,N/A,correct,1085
22,1a,speeded_recognition,25,AB,intermixed,4,correct,764
22,1a,speeded_recognition,26,BC,blocked,2,correct,1402
22,1a,speeded_recognition,27,AC,intermixed,6,correct,1248
22,1a,speeded_recognition,28,AC,blocked,2,correct,942
22,1a,speeded_recognition,29,AC,intermixed,4,correct,1033
22,1a,speeded_recognition,30,BC,blocked,3,correct,1076
22,1a,speeded_recognition,31,BC,intermixed,6,correct,974
22,1a,speeded_recognition,32,AC,blocked,3,correct,1072
22,1a,speeded_recognition,33,AC,intermixed,5,correct,1193
22,1a,speeded_recognition,34,BC,blocked,3,correct,973
22,1a,speeded_recognition,35,AC,intermixed,5,correct,988
22,1a,speeded_recognition,36,foil,intermixed,N/A,correct,1346
22,1a,speeded_recognition,37,AC,blocked,1,correct,1633
22,1a,speeded_recognition,38,AB,intermixed,5,correct,881
22,1a,speeded_recognition,39,AB,blocked,3,correct,1027
22,1a,speeded_recognition,40,BC,intermixed,5,correct,1010
22,1a,speeded_recognition,41,foil,blocked,N/A,correct,1313
22,1a,speeded_recognition,42,BC,blocked,1,correct,1152
22,1a,speeded_recognition,43,AB,intermixed,4,correct,799
22,1a,speeded_recognition,44,AC,blocked,2,correct,1144
22,1a,speeded_recognition,45,foil,intermixed,N/A,correct,1412
22,1a,speeded_recognition,46,foil,intermixed,N/A,correct,787
22,1a,speeded_recognition,47,AC,intermixed,6,incorrect,1071
22,1a,speeded_recognition,48,BC,blocked,2,correct,1184
22,1a,explicit_inference,1,AC,blocked,3,correct,2399
22,1a,explicit_inference,2,AC,blocked,1,correct,1791
22,1a,explicit_inference,3,AC,blocked,2,correct,1957
22,1a,explicit_inference,4,AC,intermixed,4,correct,1522
22,1a,explicit_inference,5,AC,intermixed,5,correct,1830
22,1a,explicit_inference,6,AC,intermixed,6,correct,1205
22,1a,explicit_inference,7,AC,intermixed,5,correct,1663
22,1a,explicit_inference,8,AC,blocked,3,correct,1328
22,1a,explicit_inference,9,AC,intermixed,4,correct,1794
22,1a,explicit_inference,10,AC,intermixed,6,correct,1301
22,1a,explicit_inference,11,AC,blocked,2,correct,2197
22,1a,explicit_inference,12,AC,blocked,1,correct,1583
23,1a,speeded_recognition,1,AB,intermixed,4,correct,919
23,1a,speeded_recognition,2,AB,blocked,1,correct,2223
23,1a,speeded_recognition,3,AC,intermixed,5,correct,1824
23,1a,speeded_recognition,4,BC,blocked,3,correct,2543
23,1a,speeded_recognition,5,AC,intermixed,4,N/A,N/A
23,1a,speeded_recognition,6,BC,blocked,1,correct,2272
23,1a,speeded_recognition,7,foil,blocked,N/A,correct,1895
23,1a,speeded_recognition,8,AB,intermixed,4,correct,1191
23,1a,speeded_recognition,9,AC,blocked,2,N/A,N/A
23,1a,speeded_recognition,10,AB,intermixed,6,correct,2128
23,1a,speeded_recognition,11,BC,blocked,3,correct,1456
23,1a,speeded_recognition,12,foil,blocked,N/A,correct,1719
23,1a,speeded_recognition,13,AB,intermixed,5,correct,1087
23,1a,speeded_recognition,14,AB,blocked,3,correct,1439
23,1a,speeded_recognition,15,foil,blocked,N/A,incorrect,1671
23,1a,speeded_recognition,16,BC,intermixed,5,correct,967
23,1a,speeded_recognition,17,foil,blocked,N/A,correct,2143
23,1a,speeded_recognition,18,BC,blocked,2,correct,1135
23,1a,speeded_recognition,19,AB,intermixed,6,correct,999
23,1a,speeded_recognition,20,foil,intermixed,N/A,correct,1431
23,1a,speeded_recognition,21,AB,blocked,2,incorrect,2400
23,1a,speeded_recognition,22,AC,intermixed,6,correct,1952
23,1a,speeded_recognition,23,BC,blocked,2,correct,1159
23,1a,speeded_recognition,24,foil,blocked,N/A,correct,1446
23,1a,speeded_recognition,25,AC,intermixed,5,correct,1735
23,1a,speeded_recognition,26,AC,blocked,3,correct,1527
23,1a,speeded_recognition,27,BC,intermixed,4,correct,1335
23,1a,speeded_recognition,28,foil,intermixed,N/A,correct,1263
23,1a,speeded_recognition,29,AB,blocked,2,incorrect,1687
23,1a,speeded_recognition,30,AC,intermixed,4,incorrect,1095
23,1a,speeded_recognition,31,foil,blocked,N/A,correct,1351
23,1a,speeded_recognition,32,BC,intermixed,5,correct,1095
23,1a,speeded_recognition,33,AB,blocked,1,correct,1680
23,1a,speeded_recognition,34,foil,intermixed,N/A,correct,1087
23,1a,speeded_recognition,35,BC,intermixed,6,correct,2175
23,1a,speeded_recognition,36,BC,blocked,1,correct,2167
23,1a,speeded_recognition,37,foil,intermixed,N/A,correct,1336
23,1a,speeded_recognition,38,AC,blocked,2,correct,2896
23,1a,speeded_recognition,39,AC,intermixed,6,correct,1576
23,1a,speeded_recognition,40,foil,intermixed,N/A,correct,1647
23,1a,speeded_recognition,41,AC,blocked,1,correct,2240
23,1a,speeded_recognition,42,BC,intermixed,6,correct,1544
23,1a,speeded_recognition,43,AC,blocked,3,correct,1919
23,1a,speeded_recognition,44,foil,intermixed,N/A,correct,1536
23,1a,speeded_recognition,45,AC,blocked,1,correct,1256
23,1a,speeded_recognition,46,BC,intermixed,4,correct,2168
23,1a,speeded_recognition,47,AB,blocked,3,correct,1904
23,1a,speeded_recognition,48,AB,intermixed,5,correct,1816
23,1a,explicit_inference,1,AC,blocked,1,correct,15277
23,1a,explicit_inference,2,AC,intermixed,5,N/A,N/A
23,1a,explicit_inference,3,AC,blocked,3,correct,2534
23,1a,explicit_inference,4,AC,intermixed,6,correct,2351
23,1a,explicit_inference,5,AC,intermixed,4,correct,3158
23,1a,explicit_inference,6,AC,blocked,2,correct,3078
23,1a,explicit_inference,7,AC,blocked,1,correct,2718
23,1a,explicit_inference,8,AC,intermixed,4,correct,2670
23,1a,explicit_inference,9,AC,intermixed,6,correct,1774
23,1a,explicit_inference,10,AC,intermixed,5,correct,1758
23,1a,explicit_inference,11,AC,blocked,2,correct,2023
23,1a,explicit_inference,12,AC,blocked,3,correct,1575
24,1a,speeded_recognition,1,AC,blocked,3,correct,2947
24,1a,speeded_recognition,2,BC,intermixed,5,correct,1323
24,1a,speeded_recognition,3,AC,blocked,2,correct,1606
24,1a,speeded_recognition,4,AB,intermixed,4,correct,1796
24,1a,speeded_recognition,5,AC,blocked,1,correct,1144
24,1a,speeded_recognition,6,BC,intermixed,4,correct,2237
24,1a,speeded_recognition,7,AB,blocked,3,correct,1470
24,1a,speeded_recognition,8,BC,intermixed,6,correct,1551
24,1a,speeded_recognition,9,BC,blocked,1,correct,1280
24,1a,speeded_recognition,10,foil,blocked,N/A,correct,1143
24,1a,speeded_recognition,11,foil,blocked,N/A,correct,2303
24,1a,speeded_recognition,12,AB,intermixed,6,correct,1008
24,1a,speeded_recognition,13,foil,blocked,N/A,correct,1459
24,1a,speeded_recognition,14,foil,intermixed,N/A,correct,1327
24,1a,speeded_recognition,15,AB,intermixed,6,correct,1640
24,1a,speeded_recognition,16,foil,intermixed,N/A,correct,1554
24,1a,speeded_recognition,17,AC,blocked,2,correct,1145
24,1a,speeded_recognition,18,AC,intermixed,5,correct,1549
24,1a,speeded_recognition,19,AB,blocked,1,incorrect,1540
24,1a,speeded_recognition,20,foil,blocked,N/A,correct,1334
24,1a,speeded_recognition,21,AB,blocked,3,correct,1034
24,1a,speeded_recognition,22,AC,intermixed,4,correct,1284
24,1a,speeded_recognition,23,AB,blocked,1,incorrect,1741
24,1a,speeded_recognition,24,AC,intermixed,5,correct,2586
24,1a,speeded_recognition,25,BC,blocked,2,correct,2071
24,1a,speeded_recognition,26,AB,intermixed,5,incorrect,2296
24,1a,speeded_recognition,27,foil,intermixed,N/A,correct,1123
24,1a,speeded_recognition,28,BC,blocked,2,correct,1158
24,1a,speeded_recognition,29,AB,intermixed,4,correct,1706
24,1a,speeded_recognition,30,foil,blocked,N/A,correct,2584
24,1a,speeded_recognition,31,foil,blocked,N/A,correct,1011
24,1a,speeded_recognition,32,BC,blocked,1,correct,2034
24,1a,speeded_recognition,33,AC,intermixed,6,correct,1653
24,1a,speeded_recognition,34,BC,blocked,3,correct,1078
24,1a,speeded_recognition,35,AC,intermixed,4,correct,1250
24,1a,speeded_recognition,36,AC,blocked,3,correct,1518
24,1a,speeded_recognition,37,BC,intermixed,5,correct,1673
24,1a,speeded_recognition,38,foil,intermixed,N/A,correct,1305
24,1a,speeded_recognition,39,AB,blocked,2,correct,1666
24,1a,speeded_recognition,40,BC,intermixed,6,incorrect,1516
24,1a,speeded_recognition,41,BC,blocked,3,correct,2754
24,1a,speeded_recognition,42,BC,intermixed,4,correct,1663
24,1a,speeded_recognition,43,AC,blocked,1,correct,1246
24,1a,speeded_recognition,44,AC,intermixed,6,correct,1594
24,1a,speeded_recognition,45,AB,blocked,2,correct,1754
24,1a,speeded_recognition,46,foil,intermixed,N/A,correct,1047
24,1a,speeded_recognition,47,AB,intermixed,5,incorrect,1104
24,1a,speeded_recognition,48,foil,intermixed,N/A,correct,1022
24,1a,explicit_inference,1,AC,intermixed,4,correct,10348
24,1a,explicit_inference,2,AC,blocked,1,incorrect,7198
24,1a,explicit_inference,3,AC,blocked,2,incorrect,6918
24,1a,explicit_inference,4,AC,intermixed,5,correct,2531
24,1a,explicit_inference,5,AC,intermixed,6,correct,5872
24,1a,explicit_inference,6,AC,blocked,3,N/A,N/A
24,1a,explicit_inference,7,AC,intermixed,5,correct,2440
24,1a,explicit_inference,8,AC,blocked,3,correct,3823
24,1a,explicit_inference,9,AC,blocked,2,correct,3046
24,1a,explicit_inference,10,AC,intermixed,6,correct,2800
24,1a,explicit_inference,11,AC,intermixed,4,correct,2609
24,1a,explicit_inference,12,AC,blocked,1,correct,2090
25,1a,speeded_recognition,1,AC,intermixed,5,correct,1249
25,1a,speeded_recognition,2,AB,blocked,1,incorrect,1985
25,1a,speeded_recognition,3,BC,intermixed,4,correct,1297
25,1a,speeded_recognition,4,BC,blocked,1,correct,1537
25,1a,speeded_recognition,5,BC,intermixed,5,correct,1456
25,1a,speeded_recognition,6,foil,intermixed,N/A,correct,1560
25,1a,speeded_recognition,7,AB,blocked,2,correct,1396
25,1a,speeded_recognition,8,AC,intermixed,6,correct,1815
25,1a,speeded_recognition,9,foil,intermixed,N/A,incorrect,1194
25,1a,speeded_recognition,10,AC,blocked,1,correct,1829
25,1a,speeded_recognition,11,AC,intermixed,5,incorrect,1213
25,1a,speeded_recognition,12,AC,blocked,2,correct,1524
25,1a,speeded_recognition,13,BC,intermixed,6,correct,1031
25,1a,speeded_recognition,14,AB,blocked,2,correct,1056
25,1a,speeded_recognition,15,AB,intermixed,5,correct,1385
25,1a,speeded_recognition,16,AC,blocked,3,correct,1797
25,1a,speeded_recognition,17,BC,intermixed,5,correct,1544
25,1a,speeded_recognition,18,foil,intermixed,N/A,correct,1406
25,1a,speeded_recognition,19,AB,blocked,3,correct,1512
25,1a,speeded_recognition,20,AB,intermixed,5,correct,1034
25,1a,speeded_recognition,21,foil,blocked,N/A,correct,1500
25,1a,speeded_recognition,22,foil,blocked,N/A,correct,2374
25,1a,speeded_recognition,23,BC,blocked,3,correct,1222
25,1a,speeded_recognition,24,foil,blocked,N/A,correct,1449
25,1a,speeded_recognition,25,AC,intermixed,4,correct,1735
25,1a,speeded_recognition,26,AC,blocked,3,correct,1636
25,1a,speeded_recognition,27,BC,intermixed,4,correct,1494
25,1a,speeded_recognition,28,BC,blocked,2,correct,1063
25,1a,speeded_recognition,29,BC,intermixed,6,correct,1253
25,1a,speeded_recognition,30,BC,blocked,2,correct,941
25,1a,speeded_recognition,31,AB,intermixed,6,correct,790
25,1a,speeded_recognition,32,foil,blocked,N/A,correct,1911
25,1a,speeded_recognition,33,AB,intermixed,4,correct,971
25,1a,speeded_recognition,34,foil,intermixed,N/A,correct,1575
25,1a,speeded_recognition,35,BC,blocked,1,incorrect,1383
25,1a,speeded_recognition,36,AC,intermixed,4,correct,1589
25,1a,speeded_recognition,37,AB,blocked,3,correct,1261
25,1a,speeded_recognition,38,AC,intermixed,6,correct,2230
25,1a,speeded_recognition,39,BC,blocked,3,correct,1540
25,1a,speeded_recognition,40,foil,intermixed,N/A,correct,1268
25,1a,speeded_recognition,41,AB,blocked,1,correct,2256
25,1a,speeded_recognition,42,AB,intermixed,4,correct,899
25,1a,speeded_recognition,43,AC,blocked,1,correct,1123
25,1a,speeded_recognition,44,foil,intermixed,N/A,incorrect,1214
25,1a,speeded_recognition,45,foil,blocked,N/A,correct,1736
25,1a,speeded_recognition,46,AB,intermixed,6,correct,833
25,1a,speeded_recognition,47,foil,blocked,N/A,correct,1044
25,1a,speeded_recognition,48,AC,blocked,2,correct,1379
25,1a,explicit_inference,1,AC,intermixed,6,correct,8477
25,1a,explicit_inference,2,AC,intermixed,5,correct,2895
25,1a,explicit_inference,3,AC,blocked,3,correct,2784
25,1a,explicit_inference,4,AC,intermixed,4,incorrect,5427
25,1a,explicit_inference,5,AC,blocked,2,correct,2864
25,1a,explicit_inference,6,AC,blocked,1,correct,3318
25,1a,explicit_inference,7,AC,intermixed,5,correct,2841
25,1a,explicit_inference,8,AC,blocked,2,correct,2681
25,1a,explicit_inference,9,AC,blocked,3,correct,2840
25,1a,explicit_inference,10,AC,intermixed,6,correct,3278
25,1a,explicit_inference,11,AC,intermixed,4,incorrect,4250
25,1a,explicit_inference,12,AC,blocked,1,incorrect,3142
26,1a,speeded_recognition,1,AC,blocked,2,correct,1221
26,1a,speeded_recognition,2,foil,intermixed,N/A,correct,1089
26,1a,speeded_recognition,3,BC,blocked,3,correct,1928
26,1a,speeded_recognition,4,AB,intermixed,5,correct,2979
26,1a,speeded_recognition,5,AC,blocked,3,N/A,N/A
26,1a,speeded_recognition,6,foil,intermixed,N/A,correct,2156
26,1a,speeded_recognition,7,AC,intermixed,6,correct,1533
26,1a,speeded_recognition,8,AB,blocked,1,correct,1080
26,1a,speeded_recognition,9,foil,intermixed,N/A,correct,1276
26,1a,speeded_recognition,10,BC,intermixed,5,correct,1862
26,1a,speeded_recognition,11,foil,blocked,N/A,correct,1299
26,1a,speeded_recognition,12,AB,intermixed,4,correct,1837
26,1a,speeded_recognition,13,AB,blocked,2,correct,1554
26,1a,speeded_recognition,14,foil,intermixed,N/A,correct,1314
26,1a,speeded_recognition,15,AC,blocked,2,correct,1328
26,1a,speeded_recognition,16,AB,intermixed,5,correct,1658
26,1a,speeded_recognition,17,AC,blocked,1,correct,1392
26,1a,speeded_recognition,18,foil,intermixed,N/A,correct,2524
26,1a,speeded_recognition,19,AC,intermixed,4,correct,1709
26,1a,speeded_recognition,20,AB,blocked,3,correct,1755
26,1a,speeded_recognition,21,AC,intermixed,5,correct,1754
26,1a,speeded_recognition,22,foil,blocked,N/A,correct,2687
26,1a,speeded_recognition,23,AB,intermixed,6,correct,1907
26,1a,speeded_recognition,24,AC,blocked,1,correct,1385
26,1a,speeded_recognition,25,AC,intermixed,5,correct,1784
26,1a,speeded_recognition,26,AC,blocked,3,correct,2224
26,1a,speeded_recognition,27,AC,intermixed,6,correct,1742
26,1a,speeded_recognition,28,BC,blocked,2,correct,1731
26,1a,speeded_recognition,29,AC,intermixed,4,correct,1378
26,1a,speeded_recognition,30,foil,blocked,N/A,correct,1227
26,1a,speeded_recognition,31,BC,blocked,2,correct,1159
26,1a,speeded_recognition,32,BC,intermixed,6,correct,1298
26,1a,speeded_recognition,33,AB,blocked,1,correct,1182
26,1a,speeded_recognition,34,AB,intermixed,4,correct,1325
26,1a,speeded_recognition,35,foil,blocked,N/A,correct,1644
26,1a,speeded_recognition,36,AB,intermixed,6,correct,916
26,1a,speeded_recognition,37,foil,blocked,N/A,correct,1254
26,1a,speeded_recognition,38,BC,blocked,3,correct,1415
26,1a,speeded_recognition,39,foil,blocked,N/A,correct,1309
26,1a,speeded_recognition,40,BC,intermixed,4,correct,1119
26,1a,speeded_recognition,41,BC,blocked,1,correct,2318
26,1a,speeded_recognition,42,BC,intermixed,5,correct,1358
26,1a,speeded_recognition,43,AB,blocked,2,correct,2046
26,1a,speeded_recognition,44,BC,intermixed,4,correct,1137
26,1a,speeded_recognition,45,foil,intermixed,N/A,correct,1058
26,1a,speeded_recognition,46,BC,blocked,1,correct,853
26,1a,speeded_recognition,47,BC,intermixed,6,correct,873
26,1a,speeded_recognition,48,AB,blocked,3,correct,1196
26,1a,explicit_inference,1,AC,blocked,2,correct,3494
26,1a,explicit_inference,2,AC,intermixed,4,correct,3609
26,1a,explicit_inference,3,AC,blocked,3,correct,1510
26,1a,explicit_inference,4,AC,intermixed,6,correct,1582
26,1a,explicit_inference,5,AC,blocked,1,correct,1847
26,1a,explicit_inference,6,AC,intermixed,5,correct,3521
26,1a,explicit_inference,7,AC,intermixed,4,correct,4133
26,1a,explicit_inference,8,AC,intermixed,6,correct,2867
26,1a,explicit_inference,9,AC,blocked,3,correct,1984
26,1a,explicit_inference,10,AC,blocked,2,correct,1408
26,1a,explicit_inference,11,AC,blocked,1,correct,1637
26,1a,explicit_inference,12,AC,intermixed,5,correct,3693
