subject,experiment,included_in_subsample_analysis,task_type,trial_number,pair_type,condition,triad_index,response_correct,response_time
1,2,,feature_memory,1,N/A,intermixed,2,correct,1450
1,2,,feature_memory,2,N/A,intermixed,3,correct,1707
1,2,,feature_memory,3,N/A,intermixed,2,correct,1261
1,2,,feature_memory,4,N/A,blocked,4,correct,1632
1,2,,feature_memory,5,N/A,blocked,6,correct,1552
1,2,,feature_memory,6,N/A,blocked,5,correct,1893
1,2,,feature_memory,7,N/A,blocked,6,correct,1303
1,2,,feature_memory,8,N/A,blocked,4,correct,1455
1,2,,feature_memory,9,N/A,intermixed,1,correct,1975
1,2,,feature_memory,10,N/A,blocked,5,correct,2015
1,2,,feature_memory,11,N/A,intermixed,1,correct,1176
1,2,,feature_memory,12,N/A,intermixed,3,correct,1442
1,2,,feature_generalization,1,N/A,intermixed,2,correct,2046
1,2,,feature_generalization,2,N/A,intermixed,3,correct,3112
1,2,,feature_generalization,3,N/A,intermixed,1,incorrect,2427
1,2,,feature_generalization,4,N/A,intermixed,2,correct,1318
1,2,,feature_generalization,5,N/A,blocked,4,correct,2207
1,2,,feature_generalization,6,N/A,blocked,6,correct,1828
1,2,,feature_generalization,7,N/A,blocked,5,correct,1152
1,2,,feature_generalization,8,N/A,intermixed,3,correct,1540
1,2,,feature_generalization,9,N/A,blocked,5,correct,1687
1,2,,feature_generalization,10,N/A,blocked,4,correct,2620
1,2,,feature_generalization,11,N/A,blocked,6,correct,2258
1,2,,feature_generalization,12,N/A,intermixed,1,incorrect,1151
1,2,,explicit_direct,1,BC,intermixed,2,correct,1543
1,2,,explicit_direct,2,AB,blocked,4,correct,1394
1,2,,explicit_direct,3,BC,intermixed,3,correct,1390
1,2,,explicit_direct,4,BC,intermixed,1,correct,1221
1,2,,explicit_direct,5,AB,blocked,6,incorrect,2043
1,2,,explicit_direct,6,BC,blocked,5,correct,1322
1,2,,explicit_direct,7,AB,intermixed,2,correct,1712
1,2,,explicit_direct,8,AB,blocked,5,incorrect,1489
1,2,,explicit_direct,9,BC,blocked,4,correct,2582
1,2,,explicit_direct,10,AB,intermixed,2,correct,1078
1,2,,explicit_direct,11,BC,intermixed,1,correct,1092
1,2,,explicit_direct,12,AB,intermixed,3,correct,2234
1,2,,explicit_direct,13,BC,intermixed,2,correct,1139
1,2,,explicit_direct,14,BC,blocked,5,incorrect,2452
1,2,,explicit_direct,15,AB,blocked,6,correct,1244
1,2,,explicit_direct,16,AB,blocked,4,correct,1050
1,2,,explicit_direct,17,BC,blocked,6,correct,1371
1,2,,explicit_direct,18,AB,intermixed,1,correct,1128
1,2,,explicit_direct,19,BC,intermixed,3,correct,1711
1,2,,explicit_direct,20,BC,blocked,4,correct,1209
1,2,,explicit_direct,21,AB,intermixed,3,correct,1209
1,2,,explicit_direct,22,AB,blocked,5,correct,1431
1,2,,explicit_direct,23,BC,blocked,6,correct,1065
1,2,,explicit_direct,24,AB,intermixed,1,correct,932
2,2,yes,feature_memory,1,N/A,blocked,6,correct,1716
2,2,yes,feature_memory,2,N/A,intermixed,2,correct,964
2,2,yes,feature_memory,3,N/A,intermixed,3,correct,1150
2,2,yes,feature_memory,4,N/A,blocked,4,correct,879
2,2,yes,feature_memory,5,N/A,intermixed,1,correct,791
2,2,yes,feature_memory,6,N/A,blocked,5,correct,898
2,2,yes,feature_memory,7,N/A,intermixed,1,correct,709
2,2,yes,feature_memory,8,N/A,blocked,5,correct,1084
2,2,yes,feature_memory,9,N/A,blocked,4,correct,768
2,2,yes,feature_memory,10,N/A,intermixed,3,correct,1682
2,2,yes,feature_memory,11,N/A,intermixed,2,correct,989
2,2,yes,feature_memory,12,N/A,blocked,6,correct,769
2,2,yes,feature_generalization,1,N/A,intermixed,2,correct,1974
2,2,yes,feature_generalization,2,N/A,blocked,5,incorrect,1880
2,2,yes,feature_generalization,3,N/A,blocked,4,incorrect,2000
2,2,yes,feature_generalization,4,N/A,intermixed,2,correct,1563
2,2,yes,feature_generalization,5,N/A,intermixed,1,incorrect,2162
2,2,yes,feature_generalization,6,N/A,blocked,6,correct,3461
2,2,yes,feature_generalization,7,N/A,blocked,5,incorrect,2348
2,2,yes,feature_generalization,8,N/A,blocked,4,incorrect,2058
2,2,yes,feature_generalization,9,N/A,intermixed,3,incorrect,1101
2,2,yes,feature_generalization,10,N/A,blocked,6,incorrect,2120
2,2,yes,feature_generalization,11,N/A,intermixed,3,correct,2289
2,2,yes,feature_generalization,12,N/A,intermixed,1,incorrect,1852
2,2,yes,explicit_direct,1,AB,blocked,5,correct,5733
2,2,yes,explicit_direct,2,AB,blocked,6,incorrect,3716
2,2,yes,explicit_direct,3,BC,intermixed,1,correct,3072
2,2,yes,explicit_direct,4,BC,blocked,6,correct,2138
2,2,yes,explicit_direct,5,BC,blocked,5,correct,2756
2,2,yes,explicit_direct,6,AB,intermixed,3,correct,3348
2,2,yes,explicit_direct,7,AB,intermixed,1,correct,1611
2,2,yes,explicit_direct,8,BC,blocked,5,correct,2130
2,2,yes,explicit_direct,9,BC,intermixed,2,correct,1323
2,2,yes,explicit_direct,10,AB,blocked,4,correct,1232
2,2,yes,explicit_direct,11,AB,intermixed,2,correct,1601
2,2,yes,explicit_direct,12,AB,intermixed,3,correct,1429
2,2,yes,explicit_direct,13,BC,blocked,4,incorrect,2553
2,2,yes,explicit_direct,14,BC,intermixed,2,correct,3252
2,2,yes,explicit_direct,15,AB,blocked,4,correct,1723
2,2,yes,explicit_direct,16,AB,blocked,5,correct,1706
2,2,yes,explicit_direct,17,BC,blocked,4,correct,1828
2,2,yes,explicit_direct,18,AB,intermixed,1,correct,1095
2,2,yes,explicit_direct,19,BC,intermixed,3,correct,1626
2,2,yes,explicit_direct,20,BC,blocked,6,correct,1404
2,2,yes,explicit_direct,21,AB,intermixed,2,correct,1076
2,2,yes,explicit_direct,22,AB,blocked,6,correct,1713
2,2,yes,explicit_direct,23,BC,intermixed,1,correct,1474
2,2,yes,explicit_direct,24,BC,intermixed,3,correct,1480
3,2,yes,feature_memory,1,N/A,blocked,4,correct,2026
3,2,yes,feature_memory,2,N/A,intermixed,3,correct,2219
3,2,yes,feature_memory,3,N/A,intermixed,1,correct,1950
3,2,yes,feature_memory,4,N/A,blocked,6,correct,2013
3,2,yes,feature_memory,5,N/A,blocked,5,correct,1989
3,2,yes,feature_memory,6,N/A,intermixed,1,correct,1694
3,2,yes,feature_memory,7,N/A,intermixed,3,correct,1841
3,2,yes,feature_memory,8,N/A,intermixed,2,correct,2795
3,2,yes,feature_memory,9,N/A,blocked,4,correct,1918
3,2,yes,feature_memory,10,N/A,blocked,5,correct,2718
3,2,yes,feature_memory,11,N/A,blocked,6,correct,1346
3,2,yes,feature_memory,12,N/A,intermixed,2,N/A,N/A
3,2,yes,feature_generalization,1,N/A,intermixed,1,correct,3265
3,2,yes,feature_generalization,2,N/A,blocked,5,incorrect,2493
3,2,yes,feature_generalization,3,N/A,intermixed,1,correct,3274
3,2,yes,feature_generalization,4,N/A,blocked,5,N/A,N/A
3,2,yes,feature_generalization,5,N/A,intermixed,3,correct,3101
3,2,yes,feature_generalization,6,N/A,blocked,4,incorrect,2852
3,2,yes,feature_generalization,7,N/A,blocked,6,correct,2989
3,2,yes,feature_generalization,8,N/A,blocked,4,incorrect,3045
3,2,yes,feature_generalization,9,N/A,intermixed,3,incorrect,3277
3,2,yes,feature_generalization,10,N/A,intermixed,2,N/A,N/A
3,2,yes,feature_generalization,11,N/A,blocked,6,correct,2217
3,2,yes,feature_generalization,12,N/A,intermixed,2,N/A,N/A
3,2,yes,explicit_direct,1,BC,blocked,5,correct,4128
3,2,yes,explicit_direct,2,AB,intermixed,1,correct,3737
3,2,yes,explicit_direct,3,BC,intermixed,3,correct,4182
3,2,yes,explicit_direct,4,AB,intermixed,2,correct,4138
3,2,yes,explicit_direct,5,BC,blocked,6,correct,4421
3,2,yes,explicit_direct,6,AB,blocked,5,correct,3021
3,2,yes,explicit_direct,7,BC,intermixed,2,correct,4180
3,2,yes,explicit_direct,8,BC,intermixed,1,correct,2293
3,2,yes,explicit_direct,9,AB,intermixed,2,correct,2741
3,2,yes,explicit_direct,10,AB,blocked,6,incorrect,3545
3,2,yes,explicit_direct,11,AB,blocked,4,incorrect,3614
3,2,yes,explicit_direct,12,BC,intermixed,2,incorrect,3043
3,2,yes,explicit_direct,13,AB,intermixed,3,correct,4654
3,2,yes,explicit_direct,14,BC,blocked,5,correct,2048
3,2,yes,explicit_direct,15,BC,intermixed,1,correct,3603
3,2,yes,explicit_direct,16,AB,blocked,5,correct,3818
3,2,yes,explicit_direct,17,BC,intermixed,3,correct,2810
3,2,yes,explicit_direct,18,BC,blocked,4,correct,2782
3,2,yes,explicit_direct,19,BC,blocked,6,incorrect,2087
3,2,yes,explicit_direct,20,AB,blocked,4,correct,2469
3,2,yes,explicit_direct,21,AB,blocked,6,correct,2988
3,2,yes,explicit_direct,22,AB,intermixed,1,correct,3213
3,2,yes,explicit_direct,23,AB,intermixed,3,correct,2454
3,2,yes,explicit_direct,24,BC,blocked,4,correct,2125
4,2,yes,feature_memory,1,N/A,blocked,4,correct,1300
4,2,yes,feature_memory,2,N/A,blocked,6,correct,1638
4,2,yes,feature_memory,3,N/A,blocked,5,correct,1375
4,2,yes,feature_memory,4,N/A,intermixed,2,correct,1243
4,2,yes,feature_memory,5,N/A,intermixed,3,correct,1110
4,2,yes,feature_memory,6,N/A,intermixed,1,correct,1119
4,2,yes,feature_memory,7,N/A,intermixed,3,correct,1186
4,2,yes,feature_memory,8,N/A,intermixed,2,correct,1050
4,2,yes,feature_memory,9,N/A,blocked,5,correct,1361
4,2,yes,feature_memory,10,N/A,blocked,6,correct,1167
4,2,yes,feature_memory,11,N/A,intermixed,1,correct,1107
4,2,yes,feature_memory,12,N/A,blocked,4,correct,912
4,2,yes,feature_generalization,1,N/A,intermixed,3,correct,1918
4,2,yes,feature_generalization,2,N/A,intermixed,2,incorrect,2099
4,2,yes,feature_generalization,3,N/A,blocked,5,correct,1766
4,2,yes,feature_generalization,4,N/A,intermixed,3,correct,1281
4,2,yes,feature_generalization,5,N/A,blocked,6,incorrect,1896
4,2,yes,feature_generalization,6,N/A,intermixed,1,incorrect,2450
4,2,yes,feature_generalization,7,N/A,blocked,4,correct,2634
4,2,yes,feature_generalization,8,N/A,blocked,5,incorrect,2327
4,2,yes,feature_generalization,9,N/A,intermixed,2,incorrect,1527
4,2,yes,feature_generalization,10,N/A,blocked,4,correct,1912
4,2,yes,feature_generalization,11,N/A,intermixed,1,incorrect,2410
4,2,yes,feature_generalization,12,N/A,blocked,6,correct,2234
4,2,yes,explicit_direct,1,AB,blocked,5,incorrect,4595
4,2,yes,explicit_direct,2,AB,intermixed,1,incorrect,3826
4,2,yes,explicit_direct,3,BC,blocked,5,correct,3819
4,2,yes,explicit_direct,4,BC,intermixed,2,correct,2579
4,2,yes,explicit_direct,5,AB,intermixed,1,correct,3516
4,2,yes,explicit_direct,6,AB,intermixed,3,correct,1739
4,2,yes,explicit_direct,7,BC,blocked,6,correct,2089
4,2,yes,explicit_direct,8,AB,blocked,5,incorrect,3136
4,2,yes,explicit_direct,9,BC,intermixed,2,correct,2390
4,2,yes,explicit_direct,10,AB,blocked,6,correct,3199
4,2,yes,explicit_direct,11,AB,intermixed,3,correct,2370
4,2,yes,explicit_direct,12,BC,blocked,5,correct,3026
4,2,yes,explicit_direct,13,BC,blocked,6,correct,1884
4,2,yes,explicit_direct,14,AB,intermixed,2,incorrect,1403
4,2,yes,explicit_direct,15,BC,intermixed,3,correct,3499
4,2,yes,explicit_direct,16,AB,blocked,4,incorrect,4168
4,2,yes,explicit_direct,17,BC,intermixed,1,correct,1796
4,2,yes,explicit_direct,18,AB,intermixed,2,incorrect,2111
4,2,yes,explicit_direct,19,BC,intermixed,3,incorrect,2367
4,2,yes,explicit_direct,20,AB,blocked,4,correct,3751
4,2,yes,explicit_direct,21,AB,blocked,6,correct,3667
4,2,yes,explicit_direct,22,BC,blocked,4,correct,2570
4,2,yes,explicit_direct,23,BC,intermixed,1,correct,2507
4,2,yes,explicit_direct,24,BC,blocked,4,correct,2980
5,2,yes,feature_memory,1,N/A,blocked,4,correct,2522
5,2,yes,feature_memory,2,N/A,blocked,5,correct,2141
5,2,yes,feature_memory,3,N/A,intermixed,1,incorrect,1900
5,2,yes,feature_memory,4,N/A,intermixed,2,correct,2334
5,2,yes,feature_memory,5,N/A,blocked,6,incorrect,1659
5,2,yes,feature_memory,6,N/A,intermixed,3,correct,1910
5,2,yes,feature_memory,7,N/A,intermixed,1,incorrect,3078
5,2,yes,feature_memory,8,N/A,intermixed,2,correct,1621
5,2,yes,feature_memory,9,N/A,blocked,4,incorrect,1703
5,2,yes,feature_memory,10,N/A,blocked,5,correct,1342
5,2,yes,feature_memory,11,N/A,intermixed,3,correct,1667
5,2,yes,feature_memory,12,N/A,blocked,6,correct,1812
5,2,yes,feature_generalization,1,N/A,blocked,5,incorrect,2715
5,2,yes,feature_generalization,2,N/A,intermixed,3,correct,2908
5,2,yes,feature_generalization,3,N/A,intermixed,2,N/A,N/A
5,2,yes,feature_generalization,4,N/A,blocked,6,incorrect,1236
5,2,yes,feature_generalization,5,N/A,intermixed,2,correct,1580
5,2,yes,feature_generalization,6,N/A,blocked,5,incorrect,1702
5,2,yes,feature_generalization,7,N/A,intermixed,3,correct,1182
5,2,yes,feature_generalization,8,N/A,blocked,4,incorrect,3116
5,2,yes,feature_generalization,9,N/A,intermixed,1,correct,1797
5,2,yes,feature_generalization,10,N/A,blocked,6,incorrect,1021
5,2,yes,feature_generalization,11,N/A,intermixed,1,correct,2022
5,2,yes,feature_generalization,12,N/A,blocked,4,incorrect,2327
5,2,yes,explicit_direct,1,AB,blocked,6,correct,3942
5,2,yes,explicit_direct,2,BC,intermixed,3,correct,1757
5,2,yes,explicit_direct,3,BC,blocked,6,correct,1196
5,2,yes,explicit_direct,4,BC,intermixed,3,correct,1501
5,2,yes,explicit_direct,5,BC,blocked,5,correct,2796
5,2,yes,explicit_direct,6,AB,blocked,4,correct,2654
5,2,yes,explicit_direct,7,BC,intermixed,2,correct,1192
5,2,yes,explicit_direct,8,AB,blocked,6,correct,1126
5,2,yes,explicit_direct,9,BC,intermixed,1,correct,1168
5,2,yes,explicit_direct,10,BC,intermixed,2,correct,1289
5,2,yes,explicit_direct,11,BC,intermixed,1,correct,1205
5,2,yes,explicit_direct,12,AB,blocked,5,incorrect,2983
5,2,yes,explicit_direct,13,AB,intermixed,3,correct,3045
5,2,yes,explicit_direct,14,AB,intermixed,1,correct,2810
5,2,yes,explicit_direct,15,BC,blocked,4,correct,1135
5,2,yes,explicit_direct,16,AB,intermixed,2,correct,1391
5,2,yes,explicit_direct,17,BC,blocked,6,correct,1281
5,2,yes,explicit_direct,18,BC,blocked,4,correct,1176
5,2,yes,explicit_direct,19,BC,blocked,5,correct,1531
5,2,yes,explicit_direct,20,AB,intermixed,3,correct,1405
5,2,yes,explicit_direct,21,AB,intermixed,1,correct,1150
5,2,yes,explicit_direct,22,AB,blocked,4,incorrect,3174
5,2,yes,explicit_direct,23,AB,blocked,5,correct,1406
5,2,yes,explicit_direct,24,AB,intermixed,2,correct,1229
6,2,yes,feature_memory,1,N/A,blocked,4,correct,1412
6,2,yes,feature_memory,2,N/A,intermixed,3,correct,1344
6,2,yes,feature_memory,3,N/A,blocked,5,correct,1048
6,2,yes,feature_memory,4,N/A,intermixed,1,correct,1200
6,2,yes,feature_memory,5,N/A,blocked,5,incorrect,1255
6,2,yes,feature_memory,6,N/A,intermixed,3,correct,926
6,2,yes,feature_memory,7,N/A,intermixed,2,correct,1754
6,2,yes,feature_memory,8,N/A,blocked,6,correct,1532
6,2,yes,feature_memory,9,N/A,blocked,4,correct,946
6,2,yes,feature_memory,10,N/A,blocked,6,correct,1554
6,2,yes,feature_memory,11,N/A,intermixed,2,correct,1222
6,2,yes,feature_memory,12,N/A,intermixed,1,correct,1338
6,2,yes,feature_generalization,1,N/A,blocked,4,incorrect,1660
6,2,yes,feature_generalization,2,N/A,blocked,5,incorrect,2104
6,2,yes,feature_generalization,3,N/A,intermixed,3,correct,1957
6,2,yes,feature_generalization,4,N/A,intermixed,1,incorrect,1610
6,2,yes,feature_generalization,5,N/A,blocked,6,incorrect,1658
6,2,yes,feature_generalization,6,N/A,intermixed,2,correct,1767
6,2,yes,feature_generalization,7,N/A,blocked,6,incorrect,1869
6,2,yes,feature_generalization,8,N/A,intermixed,1,correct,1397
6,2,yes,feature_generalization,9,N/A,blocked,4,correct,1900
6,2,yes,feature_generalization,10,N/A,intermixed,2,incorrect,2117
6,2,yes,feature_generalization,11,N/A,blocked,5,correct,1595
6,2,yes,feature_generalization,12,N/A,intermixed,3,correct,2392
6,2,yes,explicit_direct,1,BC,blocked,6,correct,2430
6,2,yes,explicit_direct,2,BC,intermixed,2,correct,2729
6,2,yes,explicit_direct,3,AB,blocked,4,correct,1985
6,2,yes,explicit_direct,4,BC,intermixed,2,correct,1899
6,2,yes,explicit_direct,5,AB,intermixed,1,correct,1602
6,2,yes,explicit_direct,6,BC,intermixed,3,correct,1114
6,2,yes,explicit_direct,7,AB,intermixed,2,correct,1684
6,2,yes,explicit_direct,8,AB,blocked,4,correct,1224
6,2,yes,explicit_direct,9,BC,blocked,6,correct,1311
6,2,yes,explicit_direct,10,AB,intermixed,1,incorrect,1562
6,2,yes,explicit_direct,11,AB,blocked,6,correct,1187
6,2,yes,explicit_direct,12,AB,intermixed,2,correct,1205
6,2,yes,explicit_direct,13,AB,blocked,5,correct,1838
6,2,yes,explicit_direct,14,BC,blocked,4,correct,1425
6,2,yes,explicit_direct,15,AB,blocked,5,correct,1417
6,2,yes,explicit_direct,16,BC,intermixed,3,correct,1127
6,2,yes,explicit_direct,17,BC,blocked,5,correct,1690
6,2,yes,explicit_direct,18,BC,intermixed,1,correct,1306
6,2,yes,explicit_direct,19,AB,intermixed,3,correct,1079
6,2,yes,explicit_direct,20,BC,blocked,4,correct,1843
6,2,yes,explicit_direct,21,AB,blocked,6,correct,1362
6,2,yes,explicit_direct,22,AB,intermixed,3,correct,1517
6,2,yes,explicit_direct,23,BC,intermixed,1,correct,2390
6,2,yes,explicit_direct,24,BC,blocked,5,correct,1432
7,2,yes,feature_memory,1,N/A,blocked,6,correct,1492
7,2,yes,feature_memory,2,N/A,blocked,5,correct,885
7,2,yes,feature_memory,3,N/A,intermixed,2,correct,931
7,2,yes,feature_memory,4,N/A,blocked,4,correct,835
7,2,yes,feature_memory,5,N/A,blocked,6,correct,963
7,2,yes,feature_memory,6,N/A,intermixed,3,correct,1102
7,2,yes,feature_memory,7,N/A,blocked,4,correct,899
7,2,yes,feature_memory,8,N/A,intermixed,3,correct,836
7,2,yes,feature_memory,9,N/A,intermixed,1,correct,931
7,2,yes,feature_memory,10,N/A,intermixed,2,correct,856
7,2,yes,feature_memory,11,N/A,intermixed,1,correct,1430
7,2,yes,feature_memory,12,N/A,blocked,5,correct,795
7,2,yes,feature_generalization,1,N/A,blocked,6,correct,1514
7,2,yes,feature_generalization,2,N/A,intermixed,2,correct,1850
7,2,yes,feature_generalization,3,N/A,blocked,5,correct,2090
7,2,yes,feature_generalization,4,N/A,blocked,6,correct,1719
7,2,yes,feature_generalization,5,N/A,intermixed,1,correct,2229
7,2,yes,feature_generalization,6,N/A,blocked,4,incorrect,2250
7,2,yes,feature_generalization,7,N/A,blocked,5,correct,2105
7,2,yes,feature_generalization,8,N/A,intermixed,2,incorrect,2208
7,2,yes,feature_generalization,9,N/A,intermixed,3,correct,1344
7,2,yes,feature_generalization,10,N/A,blocked,4,correct,2272
7,2,yes,feature_generalization,11,N/A,intermixed,3,correct,1443
7,2,yes,feature_generalization,12,N/A,intermixed,1,correct,1181
7,2,yes,explicit_direct,1,AB,intermixed,1,correct,1440
7,2,yes,explicit_direct,2,AB,intermixed,2,correct,1368
7,2,yes,explicit_direct,3,AB,intermixed,3,correct,2164
7,2,yes,explicit_direct,4,AB,blocked,5,correct,1216
7,2,yes,explicit_direct,5,BC,intermixed,2,correct,1716
7,2,yes,explicit_direct,6,BC,blocked,6,correct,1505
7,2,yes,explicit_direct,7,BC,blocked,4,correct,2342
7,2,yes,explicit_direct,8,BC,blocked,5,correct,1763
7,2,yes,explicit_direct,9,AB,intermixed,1,correct,1251
7,2,yes,explicit_direct,10,BC,blocked,5,correct,3107
7,2,yes,explicit_direct,11,BC,intermixed,3,correct,1525
7,2,yes,explicit_direct,12,AB,blocked,6,correct,2237
7,2,yes,explicit_direct,13,BC,blocked,4,correct,2061
7,2,yes,explicit_direct,14,AB,blocked,5,correct,2225
7,2,yes,explicit_direct,15,AB,intermixed,3,correct,2704
7,2,yes,explicit_direct,16,BC,blocked,6,correct,1280
7,2,yes,explicit_direct,17,AB,blocked,4,correct,1615
7,2,yes,explicit_direct,18,BC,intermixed,1,correct,2871
7,2,yes,explicit_direct,19,AB,blocked,4,correct,1184
7,2,yes,explicit_direct,20,BC,intermixed,3,correct,1520
7,2,yes,explicit_direct,21,AB,intermixed,2,correct,1934
7,2,yes,explicit_direct,22,BC,intermixed,1,correct,976
7,2,yes,explicit_direct,23,AB,blocked,6,correct,3397
7,2,yes,explicit_direct,24,BC,intermixed,2,correct,2128
8,2,yes,feature_memory,1,N/A,intermixed,2,correct,2575
8,2,yes,feature_memory,2,N/A,intermixed,1,correct,2566
8,2,yes,feature_memory,3,N/A,blocked,4,correct,1518
8,2,yes,feature_memory,4,N/A,blocked,6,correct,1359
8,2,yes,feature_memory,5,N/A,intermixed,3,correct,2301
8,2,yes,feature_memory,6,N/A,intermixed,2,correct,2477
8,2,yes,feature_memory,7,N/A,intermixed,3,correct,2463
8,2,yes,feature_memory,8,N/A,blocked,5,correct,1861
8,2,yes,feature_memory,9,N/A,intermixed,1,correct,1767
8,2,yes,feature_memory,10,N/A,blocked,4,correct,1279
8,2,yes,feature_memory,11,N/A,blocked,6,correct,1567
8,2,yes,feature_memory,12,N/A,blocked,5,correct,1751
8,2,yes,feature_generalization,1,N/A,blocked,5,correct,3524
8,2,yes,feature_generalization,2,N/A,blocked,4,incorrect,2719
8,2,yes,feature_generalization,3,N/A,intermixed,3,correct,2830
8,2,yes,feature_generalization,4,N/A,intermixed,1,incorrect,2719
8,2,yes,feature_generalization,5,N/A,blocked,6,incorrect,2799
8,2,yes,feature_generalization,6,N/A,intermixed,1,correct,2366
8,2,yes,feature_generalization,7,N/A,blocked,5,correct,2286
8,2,yes,feature_generalization,8,N/A,intermixed,3,correct,2263
8,2,yes,feature_generalization,9,N/A,blocked,4,incorrect,1974
8,2,yes,feature_generalization,10,N/A,intermixed,2,correct,2982
8,2,yes,feature_generalization,11,N/A,blocked,6,incorrect,1581
8,2,yes,feature_generalization,12,N/A,intermixed,2,correct,2038
8,2,yes,explicit_direct,1,AB,intermixed,1,incorrect,2845
8,2,yes,explicit_direct,2,AB,intermixed,3,correct,4719
8,2,yes,explicit_direct,3,AB,blocked,4,incorrect,4095
8,2,yes,explicit_direct,4,AB,blocked,5,correct,2877
8,2,yes,explicit_direct,5,BC,blocked,4,incorrect,2237
8,2,yes,explicit_direct,6,BC,blocked,6,correct,2743
8,2,yes,explicit_direct,7,AB,intermixed,2,incorrect,3301
8,2,yes,explicit_direct,8,AB,blocked,6,correct,3349
8,2,yes,explicit_direct,9,AB,blocked,5,incorrect,2494
8,2,yes,explicit_direct,10,BC,blocked,6,correct,2551
8,2,yes,explicit_direct,11,AB,intermixed,2,correct,1759
8,2,yes,explicit_direct,12,BC,blocked,4,incorrect,2719
8,2,yes,explicit_direct,13,BC,intermixed,3,correct,1333
8,2,yes,explicit_direct,14,BC,blocked,5,correct,1255
8,2,yes,explicit_direct,15,BC,intermixed,1,correct,2887
8,2,yes,explicit_direct,16,BC,intermixed,2,correct,2301
8,2,yes,explicit_direct,17,AB,blocked,4,correct,1871
8,2,yes,explicit_direct,18,BC,intermixed,3,correct,1222
8,2,yes,explicit_direct,19,BC,blocked,5,correct,1302
8,2,yes,explicit_direct,20,AB,blocked,6,correct,2590
8,2,yes,explicit_direct,21,BC,intermixed,1,correct,2133
8,2,yes,explicit_direct,22,BC,intermixed,2,correct,1910
8,2,yes,explicit_direct,23,AB,intermixed,1,correct,1925
8,2,yes,explicit_direct,24,AB,intermixed,3,incorrect,1831
9,2,yes,feature_memory,1,N/A,blocked,4,correct,2417
9,2,yes,feature_memory,2,N/A,intermixed,2,correct,2533
9,2,yes,feature_memory,3,N/A,intermixed,1,correct,1234
9,2,yes,feature_memory,4,N/A,blocked,6,correct,1337
9,2,yes,feature_memory,5,N/A,intermixed,3,correct,1607
9,2,yes,feature_memory,6,N/A,blocked,6,correct,1472
9,2,yes,feature_memory,7,N/A,blocked,5,correct,1916
9,2,yes,feature_memory,8,N/A,blocked,4,correct,1356
9,2,yes,feature_memory,9,N/A,intermixed,2,correct,1240
9,2,yes,feature_memory,10,N/A,intermixed,1,correct,1520
9,2,yes,feature_memory,11,N/A,intermixed,3,correct,896
9,2,yes,feature_memory,12,N/A,blocked,5,correct,1049
9,2,yes,feature_generalization,1,N/A,blocked,5,N/A,N/A
9,2,yes,feature_generalization,2,N/A,intermixed,2,incorrect,2681
9,2,yes,feature_generalization,3,N/A,blocked,6,incorrect,2326
9,2,yes,feature_generalization,4,N/A,intermixed,2,correct,1952
9,2,yes,feature_generalization,5,N/A,blocked,4,incorrect,2265
9,2,yes,feature_generalization,6,N/A,intermixed,1,correct,2232
9,2,yes,feature_generalization,7,N/A,blocked,4,N/A,N/A
9,2,yes,feature_generalization,8,N/A,intermixed,3,correct,2624
9,2,yes,feature_generalization,9,N/A,intermixed,1,correct,2140
9,2,yes,feature_generalization,10,N/A,intermixed,3,correct,2341
9,2,yes,feature_generalization,11,N/A,blocked,5,correct,3258
9,2,yes,feature_generalization,12,N/A,blocked,6,correct,2429
9,2,yes,explicit_direct,1,BC,intermixed,1,correct,3054
9,2,yes,explicit_direct,2,AB,intermixed,3,correct,3374
9,2,yes,explicit_direct,3,AB,blocked,6,correct,3414
9,2,yes,explicit_direct,4,BC,blocked,5,correct,4002
9,2,yes,explicit_direct,5,BC,blocked,4,correct,2231
9,2,yes,explicit_direct,6,AB,blocked,5,correct,3029
9,2,yes,explicit_direct,7,AB,blocked,4,correct,4027
9,2,yes,explicit_direct,8,AB,blocked,6,correct,2907
9,2,yes,explicit_direct,9,AB,intermixed,2,correct,2089
9,2,yes,explicit_direct,10,AB,blocked,4,correct,2932
9,2,yes,explicit_direct,11,AB,intermixed,1,correct,2837
9,2,yes,explicit_direct,12,AB,intermixed,3,correct,1981
9,2,yes,explicit_direct,13,AB,blocked,5,correct,2611
9,2,yes,explicit_direct,14,BC,blocked,6,incorrect,5706
9,2,yes,explicit_direct,15,AB,intermixed,1,correct,3981
9,2,yes,explicit_direct,16,BC,intermixed,2,correct,1336
9,2,yes,explicit_direct,17,BC,blocked,4,correct,2173
9,2,yes,explicit_direct,18,AB,intermixed,2,correct,2207
9,2,yes,explicit_direct,19,BC,intermixed,3,correct,1948
9,2,yes,explicit_direct,20,BC,blocked,5,correct,2043
9,2,yes,explicit_direct,21,BC,blocked,6,correct,2875
9,2,yes,explicit_direct,22,BC,intermixed,2,correct,1230
9,2,yes,explicit_direct,23,BC,intermixed,1,correct,3669
9,2,yes,explicit_direct,24,BC,intermixed,3,correct,4433
10,2,yes,feature_memory,1,N/A,blocked,4,correct,1314
10,2,yes,feature_memory,2,N/A,intermixed,3,correct,1067
10,2,yes,feature_memory,3,N/A,intermixed,1,incorrect,977
10,2,yes,feature_memory,4,N/A,intermixed,2,correct,1395
10,2,yes,feature_memory,5,N/A,blocked,5,correct,1012
10,2,yes,feature_memory,6,N/A,intermixed,1,correct,1543
10,2,yes,feature_memory,7,N/A,intermixed,2,correct,1067
10,2,yes,feature_memory,8,N/A,intermixed,3,correct,997
10,2,yes,feature_memory,9,N/A,blocked,6,correct,1287
10,2,yes,feature_memory,10,N/A,blocked,4,correct,968
10,2,yes,feature_memory,11,N/A,blocked,6,correct,1175
10,2,yes,feature_memory,12,N/A,blocked,5,correct,795
10,2,yes,feature_generalization,1,N/A,blocked,6,correct,3719
10,2,yes,feature_generalization,2,N/A,blocked,5,incorrect,3459
10,2,yes,feature_generalization,3,N/A,intermixed,1,N/A,N/A
10,2,yes,feature_generalization,4,N/A,blocked,4,incorrect,2458
10,2,yes,feature_generalization,5,N/A,blocked,6,correct,2611
10,2,yes,feature_generalization,6,N/A,intermixed,3,incorrect,2209
10,2,yes,feature_generalization,7,N/A,intermixed,2,correct,2649
10,2,yes,feature_generalization,8,N/A,blocked,5,incorrect,2000
10,2,yes,feature_generalization,9,N/A,intermixed,1,correct,2426
10,2,yes,feature_generalization,10,N/A,intermixed,2,incorrect,3294
10,2,yes,feature_generalization,11,N/A,intermixed,3,correct,3263
10,2,yes,feature_generalization,12,N/A,blocked,4,correct,3451
10,2,yes,explicit_direct,1,BC,blocked,5,correct,1717
10,2,yes,explicit_direct,2,AB,intermixed,2,correct,1761
10,2,yes,explicit_direct,3,BC,blocked,6,correct,1363
10,2,yes,explicit_direct,4,AB,blocked,5,correct,3505
10,2,yes,explicit_direct,5,AB,blocked,4,correct,3504
10,2,yes,explicit_direct,6,BC,intermixed,2,correct,3138
10,2,yes,explicit_direct,7,AB,intermixed,3,correct,1806
10,2,yes,explicit_direct,8,AB,intermixed,1,correct,3315
10,2,yes,explicit_direct,9,BC,intermixed,3,correct,2713
10,2,yes,explicit_direct,10,AB,blocked,6,correct,2091
10,2,yes,explicit_direct,11,BC,intermixed,2,correct,1480
10,2,yes,explicit_direct,12,AB,blocked,5,correct,3271
10,2,yes,explicit_direct,13,AB,intermixed,3,correct,4153
10,2,yes,explicit_direct,14,BC,blocked,4,correct,2859
10,2,yes,explicit_direct,15,BC,blocked,6,correct,3319
10,2,yes,explicit_direct,16,BC,intermixed,1,correct,2349
10,2,yes,explicit_direct,17,AB,blocked,4,correct,1657
10,2,yes,explicit_direct,18,AB,intermixed,2,correct,2621
10,2,yes,explicit_direct,19,BC,intermixed,1,correct,1812
10,2,yes,explicit_direct,20,BC,blocked,4,correct,5372
10,2,yes,explicit_direct,21,BC,blocked,5,correct,1327
10,2,yes,explicit_direct,22,BC,intermixed,3,correct,1509
10,2,yes,explicit_direct,23,AB,blocked,6,correct,3108
10,2,yes,explicit_direct,24,AB,intermixed,1,correct,2029
11,2,,feature_memory,1,N/A,intermixed,2,correct,2711
11,2,,feature_memory,2,N/A,intermixed,3,correct,1841
11,2,,feature_memory,3,N/A,blocked,5,correct,1492
11,2,,feature_memory,4,N/A,intermixed,3,correct,2719
11,2,,feature_memory,5,N/A,blocked,6,correct,1287
11,2,,feature_memory,6,N/A,blocked,4,correct,1431
11,2,,feature_memory,7,N/A,intermixed,1,correct,1383
11,2,,feature_memory,8,N/A,blocked,4,correct,1379
11,2,,feature_memory,9,N/A,blocked,6,correct,1737
11,2,,feature_memory,10,N/A,intermixed,1,correct,1697
11,2,,feature_memory,11,N/A,blocked,5,correct,1851
11,2,,feature_memory,12,N/A,intermixed,2,correct,1678
11,2,,feature_generalization,1,N/A,blocked,6,N/A,N/A
11,2,,feature_generalization,2,N/A,blocked,5,incorrect,1870
11,2,,feature_generalization,3,N/A,blocked,4,correct,1453
11,2,,feature_generalization,4,N/A,intermixed,2,incorrect,1822
11,2,,feature_generalization,5,N/A,intermixed,1,correct,1708
11,2,,feature_generalization,6,N/A,intermixed,3,correct,1644
11,2,,feature_generalization,7,N/A,blocked,5,incorrect,1883
11,2,,feature_generalization,8,N/A,intermixed,3,correct,3350
11,2,,feature_generalization,9,N/A,blocked,6,correct,2914
11,2,,feature_generalization,10,N/A,intermixed,1,correct,3597
11,2,,feature_generalization,11,N/A,blocked,4,correct,1689
11,2,,feature_generalization,12,N/A,intermixed,2,correct,2898
11,2,,explicit_direct,1,BC,blocked,5,incorrect,3636
11,2,,explicit_direct,2,BC,blocked,6,N/A,N/A
11,2,,explicit_direct,3,AB,blocked,4,correct,1991
11,2,,explicit_direct,4,BC,intermixed,3,correct,3034
11,2,,explicit_direct,5,BC,blocked,6,correct,2060
11,2,,explicit_direct,6,AB,intermixed,1,correct,1909
11,2,,explicit_direct,7,AB,blocked,5,correct,2001
11,2,,explicit_direct,8,AB,intermixed,2,correct,1881
11,2,,explicit_direct,9,AB,intermixed,3,correct,2315
11,2,,explicit_direct,10,AB,blocked,4,correct,2210
11,2,,explicit_direct,11,BC,intermixed,2,correct,2436
11,2,,explicit_direct,12,AB,blocked,5,correct,1465
11,2,,explicit_direct,13,BC,intermixed,1,correct,3476
11,2,,explicit_direct,14,BC,blocked,4,correct,1689
11,2,,explicit_direct,15,AB,intermixed,3,correct,2800
11,2,,explicit_direct,16,AB,blocked,6,correct,5372
11,2,,explicit_direct,17,BC,blocked,4,correct,1555
11,2,,explicit_direct,18,AB,intermixed,2,correct,2013
11,2,,explicit_direct,19,BC,intermixed,1,correct,3114
11,2,,explicit_direct,20,BC,blocked,5,correct,3945
11,2,,explicit_direct,21,BC,intermixed,2,correct,4346
11,2,,explicit_direct,22,AB,intermixed,1,correct,3920
11,2,,explicit_direct,23,AB,blocked,6,correct,3769
11,2,,explicit_direct,24,BC,intermixed,3,correct,1983
12,2,,feature_memory,1,N/A,blocked,4,correct,1871
12,2,,feature_memory,2,N/A,blocked,5,correct,2015
12,2,,feature_memory,3,N/A,intermixed,3,correct,1935
12,2,,feature_memory,4,N/A,intermixed,1,incorrect,2447
12,2,,feature_memory,5,N/A,blocked,6,correct,1662
12,2,,feature_memory,6,N/A,blocked,4,correct,2000
12,2,,feature_memory,7,N/A,blocked,6,correct,1871
12,2,,feature_memory,8,N/A,intermixed,1,correct,2143
12,2,,feature_memory,9,N/A,intermixed,2,correct,1990
12,2,,feature_memory,10,N/A,blocked,5,correct,2333
12,2,,feature_memory,11,N/A,intermixed,3,correct,1535
12,2,,feature_memory,12,N/A,intermixed,2,correct,2151
12,2,,feature_generalization,1,N/A,blocked,4,incorrect,3430
12,2,,feature_generalization,2,N/A,blocked,6,correct,3543
12,2,,feature_generalization,3,N/A,intermixed,2,incorrect,3079
12,2,,feature_generalization,4,N/A,blocked,4,incorrect,1759
12,2,,feature_generalization,5,N/A,intermixed,2,incorrect,2167
12,2,,feature_generalization,6,N/A,blocked,6,correct,2239
12,2,,feature_generalization,7,N/A,blocked,5,correct,2295
12,2,,feature_generalization,8,N/A,intermixed,3,incorrect,2696
12,2,,feature_generalization,9,N/A,intermixed,1,correct,1992
12,2,,feature_generalization,10,N/A,intermixed,3,correct,2782
12,2,,feature_generalization,11,N/A,blocked,5,correct,1623
12,2,,feature_generalization,12,N/A,intermixed,1,correct,1359
12,2,,explicit_direct,1,AB,intermixed,1,incorrect,3933
12,2,,explicit_direct,2,BC,blocked,6,incorrect,3784
12,2,,explicit_direct,3,BC,intermixed,1,correct,3580
12,2,,explicit_direct,4,AB,blocked,4,incorrect,2959
12,2,,explicit_direct,5,AB,intermixed,2,correct,2527
12,2,,explicit_direct,6,AB,blocked,4,correct,3616
12,2,,explicit_direct,7,AB,blocked,6,correct,2207
12,2,,explicit_direct,8,BC,blocked,5,correct,4008
12,2,,explicit_direct,9,AB,intermixed,3,correct,2872
12,2,,explicit_direct,10,BC,blocked,6,incorrect,4199
12,2,,explicit_direct,11,AB,blocked,5,correct,2215
12,2,,explicit_direct,12,BC,blocked,4,correct,1823
12,2,,explicit_direct,13,BC,intermixed,3,incorrect,2231
12,2,,explicit_direct,14,BC,intermixed,1,correct,3230
12,2,,explicit_direct,15,BC,blocked,4,correct,3409
12,2,,explicit_direct,16,BC,intermixed,2,incorrect,3878
12,2,,explicit_direct,17,BC,blocked,5,incorrect,4247
12,2,,explicit_direct,18,AB,intermixed,2,correct,1774
12,2,,explicit_direct,19,AB,intermixed,3,correct,1534
12,2,,explicit_direct,20,AB,intermixed,1,incorrect,2878
12,2,,explicit_direct,21,AB,blocked,6,incorrect,2606
12,2,,explicit_direct,22,BC,intermixed,3,correct,1950
12,2,,explicit_direct,23,BC,intermixed,2,correct,3543
12,2,,explicit_direct,24,AB,blocked,5,incorrect,2198
13,2,yes,feature_memory,1,N/A,blocked,4,correct,1667
13,2,yes,feature_memory,2,N/A,blocked,5,correct,1669
13,2,yes,feature_memory,3,N/A,blocked,4,correct,1804
13,2,yes,feature_memory,4,N/A,intermixed,2,correct,1301
13,2,yes,feature_memory,5,N/A,intermixed,3,correct,1660
13,2,yes,feature_memory,6,N/A,intermixed,2,incorrect,1782
13,2,yes,feature_memory,7,N/A,intermixed,3,correct,1276
13,2,yes,feature_memory,8,N/A,blocked,5,correct,1151
13,2,yes,feature_memory,9,N/A,intermixed,1,correct,2351
13,2,yes,feature_memory,10,N/A,blocked,6,correct,1884
13,2,yes,feature_memory,11,N/A,intermixed,1,correct,2158
13,2,yes,feature_memory,12,N/A,blocked,6,correct,997
13,2,yes,feature_generalization,1,N/A,intermixed,3,incorrect,2788
13,2,yes,feature_generalization,2,N/A,intermixed,1,incorrect,2302
13,2,yes,feature_generalization,3,N/A,blocked,4,incorrect,2460
13,2,yes,feature_generalization,4,N/A,blocked,6,incorrect,2339
13,2,yes,feature_generalization,5,N/A,blocked,5,incorrect,1373
13,2,yes,feature_generalization,6,N/A,intermixed,1,incorrect,1987
13,2,yes,feature_generalization,7,N/A,blocked,5,incorrect,1762
13,2,yes,feature_generalization,8,N/A,intermixed,2,incorrect,1944
13,2,yes,feature_generalization,9,N/A,intermixed,3,incorrect,2293
13,2,yes,feature_generalization,10,N/A,blocked,6,incorrect,1387
13,2,yes,feature_generalization,11,N/A,blocked,4,incorrect,2052
13,2,yes,feature_generalization,12,N/A,intermixed,2,incorrect,1870
13,2,yes,explicit_direct,1,AB,blocked,5,correct,2562
13,2,yes,explicit_direct,2,BC,blocked,6,correct,2140
13,2,yes,explicit_direct,3,AB,intermixed,1,correct,1808
13,2,yes,explicit_direct,4,AB,blocked,4,correct,1282
13,2,yes,explicit_direct,5,BC,intermixed,2,correct,2186
13,2,yes,explicit_direct,6,BC,intermixed,1,correct,1878
13,2,yes,explicit_direct,7,AB,blocked,5,correct,1783
13,2,yes,explicit_direct,8,AB,intermixed,3,correct,1799
13,2,yes,explicit_direct,9,AB,intermixed,2,correct,1616
13,2,yes,explicit_direct,10,AB,blocked,6,correct,1659
13,2,yes,explicit_direct,11,AB,intermixed,2,correct,1535
13,2,yes,explicit_direct,12,AB,blocked,4,correct,1667
13,2,yes,explicit_direct,13,BC,blocked,5,correct,2812
13,2,yes,explicit_direct,14,AB,intermixed,3,correct,1524
13,2,yes,explicit_direct,15,BC,intermixed,2,correct,2045
13,2,yes,explicit_direct,16,BC,intermixed,3,correct,1529
13,2,yes,explicit_direct,17,AB,blocked,6,correct,1133
13,2,yes,explicit_direct,18,BC,blocked,4,correct,2006
13,2,yes,explicit_direct,19,BC,blocked,5,correct,1965
13,2,yes,explicit_direct,20,BC,intermixed,3,correct,1306
13,2,yes,explicit_direct,21,AB,intermixed,1,correct,1963
13,2,yes,explicit_direct,22,BC,blocked,4,correct,2198
13,2,yes,explicit_direct,23,BC,intermixed,1,correct,1852
13,2,yes,explicit_direct,24,BC,blocked,6,correct,3480
14,2,yes,feature_memory,1,N/A,blocked,5,correct,2416
14,2,yes,feature_memory,2,N/A,blocked,6,correct,1938
14,2,yes,feature_memory,3,N/A,intermixed,3,correct,1972
14,2,yes,feature_memory,4,N/A,intermixed,2,correct,2018
14,2,yes,feature_memory,5,N/A,intermixed,1,correct,2165
14,2,yes,feature_memory,6,N/A,intermixed,2,correct,2242
14,2,yes,feature_memory,7,N/A,blocked,4,correct,2036
14,2,yes,feature_memory,8,N/A,blocked,6,correct,1768
14,2,yes,feature_memory,9,N/A,blocked,4,correct,1888
14,2,yes,feature_memory,10,N/A,intermixed,1,correct,1685
14,2,yes,feature_memory,11,N/A,intermixed,3,correct,2095
14,2,yes,feature_memory,12,N/A,blocked,5,correct,1414
14,2,yes,feature_generalization,1,N/A,blocked,5,N/A,N/A
14,2,yes,feature_generalization,2,N/A,blocked,4,N/A,N/A
14,2,yes,feature_generalization,3,N/A,intermixed,1,incorrect,2362
14,2,yes,feature_generalization,4,N/A,intermixed,3,correct,2096
14,2,yes,feature_generalization,5,N/A,blocked,4,correct,2282
14,2,yes,feature_generalization,6,N/A,blocked,6,correct,2247
14,2,yes,feature_generalization,7,N/A,blocked,5,incorrect,1942
14,2,yes,feature_generalization,8,N/A,intermixed,2,correct,2345
14,2,yes,feature_generalization,9,N/A,intermixed,3,incorrect,2066
14,2,yes,feature_generalization,10,N/A,intermixed,1,incorrect,2178
14,2,yes,feature_generalization,11,N/A,intermixed,2,correct,2005
14,2,yes,feature_generalization,12,N/A,blocked,6,incorrect,1806
14,2,yes,explicit_direct,1,AB,blocked,5,incorrect,3149
14,2,yes,explicit_direct,2,AB,intermixed,2,correct,2092
14,2,yes,explicit_direct,3,BC,intermixed,1,correct,2885
14,2,yes,explicit_direct,4,BC,intermixed,3,correct,2021
14,2,yes,explicit_direct,5,BC,blocked,6,correct,1776
14,2,yes,explicit_direct,6,AB,blocked,4,correct,1729
14,2,yes,explicit_direct,7,AB,intermixed,3,correct,3807
14,2,yes,explicit_direct,8,BC,blocked,4,correct,1921
14,2,yes,explicit_direct,9,AB,blocked,5,incorrect,2034
14,2,yes,explicit_direct,10,BC,intermixed,1,correct,2025
14,2,yes,explicit_direct,11,BC,intermixed,2,correct,2086
14,2,yes,explicit_direct,12,AB,blocked,4,correct,1681
14,2,yes,explicit_direct,13,BC,blocked,6,correct,1800
14,2,yes,explicit_direct,14,AB,intermixed,1,correct,1755
14,2,yes,explicit_direct,15,BC,intermixed,3,incorrect,1658
14,2,yes,explicit_direct,16,AB,blocked,6,correct,3307
14,2,yes,explicit_direct,17,AB,intermixed,3,correct,3121
14,2,yes,explicit_direct,18,AB,intermixed,2,correct,1721
14,2,yes,explicit_direct,19,BC,blocked,4,correct,2708
14,2,yes,explicit_direct,20,BC,blocked,5,correct,1672
14,2,yes,explicit_direct,21,AB,intermixed,1,correct,1854
14,2,yes,explicit_direct,22,BC,blocked,5,correct,1756
14,2,yes,explicit_direct,23,AB,blocked,6,correct,1924
14,2,yes,explicit_direct,24,BC,intermixed,2,correct,3099
15,2,yes,feature_memory,1,N/A,blocked,6,correct,1269
15,2,yes,feature_memory,2,N/A,intermixed,1,correct,1033
15,2,yes,feature_memory,3,N/A,blocked,5,correct,1157
15,2,yes,feature_memory,4,N/A,blocked,4,correct,1099
15,2,yes,feature_memory,5,N/A,blocked,5,correct,1167
15,2,yes,feature_memory,6,N/A,blocked,4,correct,1260
15,2,yes,feature_memory,7,N/A,intermixed,2,correct,1466
15,2,yes,feature_memory,8,N/A,intermixed,3,correct,1020
15,2,yes,feature_memory,9,N/A,intermixed,1,correct,922
15,2,yes,feature_memory,10,N/A,blocked,6,correct,1012
15,2,yes,feature_memory,11,N/A,intermixed,3,correct,978
15,2,yes,feature_memory,12,N/A,intermixed,2,correct,948
15,2,yes,feature_generalization,1,N/A,blocked,5,correct,1804
15,2,yes,feature_generalization,2,N/A,blocked,4,correct,1409
15,2,yes,feature_generalization,3,N/A,blocked,5,incorrect,2565
15,2,yes,feature_generalization,4,N/A,blocked,6,correct,2102
15,2,yes,feature_generalization,5,N/A,intermixed,2,incorrect,2236
15,2,yes,feature_generalization,6,N/A,blocked,4,correct,1591
15,2,yes,feature_generalization,7,N/A,blocked,6,incorrect,1839
15,2,yes,feature_generalization,8,N/A,intermixed,2,incorrect,2020
15,2,yes,feature_generalization,9,N/A,intermixed,1,correct,2213
15,2,yes,feature_generalization,10,N/A,intermixed,3,correct,1629
15,2,yes,feature_generalization,11,N/A,intermixed,1,correct,1696
15,2,yes,feature_generalization,12,N/A,intermixed,3,correct,1468
15,2,yes,explicit_direct,1,BC,intermixed,3,correct,2318
15,2,yes,explicit_direct,2,AB,blocked,5,correct,3630
15,2,yes,explicit_direct,3,AB,intermixed,3,incorrect,2766
15,2,yes,explicit_direct,4,AB,blocked,4,correct,1673
15,2,yes,explicit_direct,5,BC,intermixed,2,correct,1861
15,2,yes,explicit_direct,6,AB,blocked,5,incorrect,2349
15,2,yes,explicit_direct,7,AB,intermixed,2,correct,4657
15,2,yes,explicit_direct,8,BC,blocked,5,correct,1716
15,2,yes,explicit_direct,9,AB,intermixed,1,correct,1343
15,2,yes,explicit_direct,10,BC,blocked,4,correct,2326
15,2,yes,explicit_direct,11,BC,blocked,6,correct,2174
15,2,yes,explicit_direct,12,BC,intermixed,1,correct,3032
15,2,yes,explicit_direct,13,AB,intermixed,2,incorrect,1629
15,2,yes,explicit_direct,14,AB,blocked,4,correct,1301
15,2,yes,explicit_direct,15,BC,blocked,5,correct,1650
15,2,yes,explicit_direct,16,AB,intermixed,1,correct,1349
15,2,yes,explicit_direct,17,BC,intermixed,2,correct,1374
15,2,yes,explicit_direct,18,BC,blocked,6,incorrect,1680
15,2,yes,explicit_direct,19,AB,intermixed,3,correct,2309
15,2,yes,explicit_direct,20,BC,blocked,4,correct,1997
15,2,yes,explicit_direct,21,AB,blocked,6,incorrect,1878
15,2,yes,explicit_direct,22,BC,intermixed,3,correct,1393
15,2,yes,explicit_direct,23,BC,intermixed,1,correct,2034
15,2,yes,explicit_direct,24,AB,blocked,6,correct,3311
16,2,yes,feature_memory,1,N/A,intermixed,2,correct,2586
16,2,yes,feature_memory,2,N/A,blocked,5,incorrect,2305
16,2,yes,feature_memory,3,N/A,blocked,6,correct,2734
16,2,yes,feature_memory,4,N/A,intermixed,1,correct,1586
16,2,yes,feature_memory,5,N/A,blocked,6,correct,2587
16,2,yes,feature_memory,6,N/A,intermixed,3,correct,2653
16,2,yes,feature_memory,7,N/A,intermixed,2,correct,1879
16,2,yes,feature_memory,8,N/A,blocked,5,incorrect,1777
16,2,yes,feature_memory,9,N/A,blocked,4,correct,2441
16,2,yes,feature_memory,10,N/A,intermixed,3,incorrect,2248
16,2,yes,feature_memory,11,N/A,blocked,4,correct,2666
16,2,yes,feature_memory,12,N/A,intermixed,1,correct,1405
16,2,yes,feature_generalization,1,N/A,intermixed,3,correct,2103
16,2,yes,feature_generalization,2,N/A,blocked,5,correct,1968
16,2,yes,feature_generalization,3,N/A,blocked,6,incorrect,1967
16,2,yes,feature_generalization,4,N/A,intermixed,2,correct,1855
16,2,yes,feature_generalization,5,N/A,intermixed,1,correct,2193
16,2,yes,feature_generalization,6,N/A,intermixed,2,correct,3128
16,2,yes,feature_generalization,7,N/A,blocked,6,incorrect,1597
16,2,yes,feature_generalization,8,N/A,blocked,5,incorrect,2913
16,2,yes,feature_generalization,9,N/A,intermixed,3,correct,1945
16,2,yes,feature_generalization,10,N/A,blocked,4,correct,2498
16,2,yes,feature_generalization,11,N/A,intermixed,1,correct,2149
16,2,yes,feature_generalization,12,N/A,blocked,4,correct,1608
16,2,yes,explicit_direct,1,BC,intermixed,3,correct,3800
16,2,yes,explicit_direct,2,BC,blocked,6,correct,2181
16,2,yes,explicit_direct,3,BC,intermixed,1,incorrect,2564
16,2,yes,explicit_direct,4,AB,blocked,4,correct,2013
16,2,yes,explicit_direct,5,AB,intermixed,2,correct,2845
16,2,yes,explicit_direct,6,BC,blocked,4,correct,1676
16,2,yes,explicit_direct,7,AB,intermixed,2,incorrect,3677
16,2,yes,explicit_direct,8,BC,intermixed,1,correct,2866
16,2,yes,explicit_direct,9,AB,blocked,6,incorrect,2012
16,2,yes,explicit_direct,10,AB,blocked,5,incorrect,1360
16,2,yes,explicit_direct,11,BC,intermixed,2,incorrect,1495
16,2,yes,explicit_direct,12,AB,intermixed,1,correct,2587
16,2,yes,explicit_direct,13,AB,blocked,6,correct,1406
16,2,yes,explicit_direct,14,AB,intermixed,3,incorrect,1609
16,2,yes,explicit_direct,15,BC,blocked,5,incorrect,2170
16,2,yes,explicit_direct,16,AB,intermixed,3,correct,1933
16,2,yes,explicit_direct,17,BC,blocked,6,correct,2125
16,2,yes,explicit_direct,18,BC,blocked,4,incorrect,1597
16,2,yes,explicit_direct,19,BC,blocked,5,correct,2676
16,2,yes,explicit_direct,20,AB,blocked,4,incorrect,1868
16,2,yes,explicit_direct,21,AB,intermixed,1,incorrect,1541
16,2,yes,explicit_direct,22,BC,intermixed,3,correct,2250
16,2,yes,explicit_direct,23,BC,intermixed,2,correct,1259
16,2,yes,explicit_direct,24,AB,blocked,5,correct,2879
17,2,yes,feature_memory,1,N/A,intermixed,2,correct,1873
17,2,yes,feature_memory,2,N/A,blocked,6,correct,1160
17,2,yes,feature_memory,3,N/A,intermixed,1,correct,1095
17,2,yes,feature_memory,4,N/A,blocked,5,incorrect,1986
17,2,yes,feature_memory,5,N/A,intermixed,1,incorrect,1578
17,2,yes,feature_memory,6,N/A,blocked,6,correct,1278
17,2,yes,feature_memory,7,N/A,blocked,4,correct,1101
17,2,yes,feature_memory,8,N/A,intermixed,3,correct,1055
17,2,yes,feature_memory,9,N/A,blocked,4,correct,2596
17,2,yes,feature_memory,10,N/A,intermixed,2,correct,1159
17,2,yes,feature_memory,11,N/A,blocked,5,correct,1167
17,2,yes,feature_memory,12,N/A,intermixed,3,incorrect,818
17,2,yes,feature_generalization,1,N/A,blocked,6,incorrect,1857
17,2,yes,feature_generalization,2,N/A,intermixed,3,incorrect,1373
17,2,yes,feature_generalization,3,N/A,intermixed,1,incorrect,1277
17,2,yes,feature_generalization,4,N/A,intermixed,2,correct,2391
17,2,yes,feature_generalization,5,N/A,blocked,4,incorrect,1812
17,2,yes,feature_generalization,6,N/A,intermixed,2,incorrect,1747
17,2,yes,feature_generalization,7,N/A,blocked,5,incorrect,1159
17,2,yes,feature_generalization,8,N/A,blocked,4,incorrect,1502
17,2,yes,feature_generalization,9,N/A,blocked,6,incorrect,1136
17,2,yes,feature_generalization,10,N/A,intermixed,1,correct,1350
17,2,yes,feature_generalization,11,N/A,intermixed,3,incorrect,2272
17,2,yes,feature_generalization,12,N/A,blocked,5,correct,1121
17,2,yes,explicit_direct,1,BC,blocked,5,correct,1848
17,2,yes,explicit_direct,2,AB,blocked,6,correct,3028
17,2,yes,explicit_direct,3,AB,intermixed,3,correct,1318
17,2,yes,explicit_direct,4,AB,blocked,4,correct,1397
17,2,yes,explicit_direct,5,BC,intermixed,1,correct,1484
17,2,yes,explicit_direct,6,BC,intermixed,2,incorrect,1206
17,2,yes,explicit_direct,7,BC,blocked,6,incorrect,2152
17,2,yes,explicit_direct,8,AB,intermixed,2,correct,1113
17,2,yes,explicit_direct,9,AB,intermixed,3,incorrect,1033
17,2,yes,explicit_direct,10,AB,intermixed,1,correct,1207
17,2,yes,explicit_direct,11,BC,blocked,6,correct,1976
17,2,yes,explicit_direct,12,BC,intermixed,2,correct,1135
17,2,yes,explicit_direct,13,BC,intermixed,3,correct,2729
17,2,yes,explicit_direct,14,AB,blocked,4,correct,1221
17,2,yes,explicit_direct,15,AB,blocked,5,correct,1562
17,2,yes,explicit_direct,16,AB,intermixed,2,correct,1269
17,2,yes,explicit_direct,17,AB,intermixed,1,correct,1437
17,2,yes,explicit_direct,18,BC,blocked,5,correct,1149
17,2,yes,explicit_direct,19,BC,intermixed,1,incorrect,1023
17,2,yes,explicit_direct,20,AB,blocked,6,incorrect,1180
17,2,yes,explicit_direct,21,BC,intermixed,3,correct,1071
17,2,yes,explicit_direct,22,BC,blocked,4,incorrect,1101
17,2,yes,explicit_direct,23,AB,blocked,5,correct,1165
17,2,yes,explicit_direct,24,BC,blocked,4,correct,2634
18,2,yes,feature_memory,1,N/A,intermixed,3,correct,1382
18,2,yes,feature_memory,2,N/A,blocked,5,correct,1207
18,2,yes,feature_memory,3,N/A,intermixed,2,correct,910
18,2,yes,feature_memory,4,N/A,blocked,6,correct,887
18,2,yes,feature_memory,5,N/A,intermixed,1,correct,893
18,2,yes,feature_memory,6,N/A,blocked,4,correct,902
18,2,yes,feature_memory,7,N/A,blocked,6,correct,815
18,2,yes,feature_memory,8,N/A,intermixed,1,correct,951
18,2,yes,feature_memory,9,N/A,blocked,4,correct,1039
18,2,yes,feature_memory,10,N/A,blocked,5,correct,1142
18,2,yes,feature_memory,11,N/A,intermixed,2,incorrect,959
18,2,yes,feature_memory,12,N/A,intermixed,3,correct,1766
18,2,yes,feature_generalization,1,N/A,intermixed,1,incorrect,3518
18,2,yes,feature_generalization,2,N/A,blocked,6,correct,2134
18,2,yes,feature_generalization,3,N/A,intermixed,1,incorrect,1544
18,2,yes,feature_generalization,4,N/A,intermixed,3,incorrect,1767
18,2,yes,feature_generalization,5,N/A,blocked,5,correct,2214
18,2,yes,feature_generalization,6,N/A,blocked,4,correct,1519
18,2,yes,feature_generalization,7,N/A,intermixed,2,incorrect,1639
18,2,yes,feature_generalization,8,N/A,blocked,4,correct,903
18,2,yes,feature_generalization,9,N/A,intermixed,2,incorrect,727
18,2,yes,feature_generalization,10,N/A,blocked,6,incorrect,1119
18,2,yes,feature_generalization,11,N/A,blocked,5,incorrect,990
18,2,yes,feature_generalization,12,N/A,intermixed,3,correct,1214
18,2,yes,explicit_direct,1,BC,intermixed,1,correct,4118
18,2,yes,explicit_direct,2,BC,blocked,5,correct,2958
18,2,yes,explicit_direct,3,BC,blocked,6,correct,3310
18,2,yes,explicit_direct,4,AB,intermixed,2,correct,1422
18,2,yes,explicit_direct,5,AB,blocked,5,correct,1263
18,2,yes,explicit_direct,6,AB,intermixed,1,correct,1679
18,2,yes,explicit_direct,7,BC,intermixed,3,correct,2263
18,2,yes,explicit_direct,8,BC,intermixed,1,incorrect,2679
18,2,yes,explicit_direct,9,BC,intermixed,2,correct,2111
18,2,yes,explicit_direct,10,AB,intermixed,1,correct,1215
18,2,yes,explicit_direct,11,BC,blocked,6,correct,1535
18,2,yes,explicit_direct,12,AB,blocked,5,correct,1254
18,2,yes,explicit_direct,13,AB,intermixed,3,correct,1264
18,2,yes,explicit_direct,14,AB,blocked,6,correct,1452
18,2,yes,explicit_direct,15,AB,blocked,4,correct,3758
18,2,yes,explicit_direct,16,AB,intermixed,3,correct,1199
18,2,yes,explicit_direct,17,BC,intermixed,2,correct,1774
18,2,yes,explicit_direct,18,AB,blocked,4,correct,2991
18,2,yes,explicit_direct,19,BC,intermixed,3,correct,3590
18,2,yes,explicit_direct,20,AB,intermixed,2,correct,1479
18,2,yes,explicit_direct,21,BC,blocked,5,correct,1376
18,2,yes,explicit_direct,22,BC,blocked,4,correct,1552
18,2,yes,explicit_direct,23,AB,blocked,6,correct,1279
18,2,yes,explicit_direct,24,BC,blocked,4,correct,1199
19,2,,feature_memory,1,N/A,blocked,6,correct,1822
19,2,,feature_memory,2,N/A,intermixed,1,correct,1009
19,2,,feature_memory,3,N/A,intermixed,3,correct,901
19,2,,feature_memory,4,N/A,blocked,5,correct,1104
19,2,,feature_memory,5,N/A,intermixed,2,correct,1313
19,2,,feature_memory,6,N/A,blocked,4,correct,994
19,2,,feature_memory,7,N/A,intermixed,1,correct,900
19,2,,feature_memory,8,N/A,intermixed,3,correct,1003
19,2,,feature_memory,9,N/A,blocked,6,correct,945
19,2,,feature_memory,10,N/A,blocked,5,correct,970
19,2,,feature_memory,11,N/A,blocked,4,correct,1061
19,2,,feature_memory,12,N/A,intermixed,2,correct,964
19,2,,feature_generalization,1,N/A,intermixed,1,correct,1866
19,2,,feature_generalization,2,N/A,blocked,6,correct,2851
19,2,,feature_generalization,3,N/A,intermixed,2,incorrect,2312
19,2,,feature_generalization,4,N/A,blocked,6,correct,1431
19,2,,feature_generalization,5,N/A,intermixed,2,correct,2569
19,2,,feature_generalization,6,N/A,blocked,5,correct,1606
19,2,,feature_generalization,7,N/A,blocked,4,incorrect,1353
19,2,,feature_generalization,8,N/A,intermixed,1,correct,2455
19,2,,feature_generalization,9,N/A,intermixed,3,incorrect,1837
19,2,,feature_generalization,10,N/A,blocked,4,incorrect,3290
19,2,,feature_generalization,11,N/A,blocked,5,correct,2603
19,2,,feature_generalization,12,N/A,intermixed,3,correct,1559
19,2,,explicit_direct,1,BC,blocked,6,correct,6542
19,2,,explicit_direct,2,BC,intermixed,2,correct,3279
19,2,,explicit_direct,3,AB,blocked,6,correct,1837
19,2,,explicit_direct,4,AB,intermixed,1,correct,2533
19,2,,explicit_direct,5,BC,blocked,5,correct,1245
19,2,,explicit_direct,6,AB,intermixed,2,correct,1376
19,2,,explicit_direct,7,BC,intermixed,3,correct,3952
19,2,,explicit_direct,8,BC,intermixed,2,correct,2399
19,2,,explicit_direct,9,AB,intermixed,1,correct,1197
19,2,,explicit_direct,10,AB,blocked,5,correct,1788
19,2,,explicit_direct,11,AB,blocked,4,correct,2058
19,2,,explicit_direct,12,BC,intermixed,1,correct,1698
19,2,,explicit_direct,13,AB,blocked,5,correct,3165
19,2,,explicit_direct,14,AB,intermixed,2,correct,2172
19,2,,explicit_direct,15,BC,blocked,4,incorrect,1573
19,2,,explicit_direct,16,AB,intermixed,3,incorrect,1414
19,2,,explicit_direct,17,BC,blocked,6,incorrect,1526
19,2,,explicit_direct,18,BC,intermixed,1,correct,1462
19,2,,explicit_direct,19,AB,intermixed,3,correct,2027
19,2,,explicit_direct,20,BC,blocked,4,incorrect,1769
19,2,,explicit_direct,21,BC,intermixed,3,correct,2220
19,2,,explicit_direct,22,AB,blocked,6,correct,1463
19,2,,explicit_direct,23,AB,blocked,4,correct,1456
19,2,,explicit_direct,24,BC,blocked,5,correct,2363
20,2,yes,feature_memory,1,N/A,blocked,5,correct,1339
20,2,yes,feature_memory,2,N/A,blocked,4,correct,1437
20,2,yes,feature_memory,3,N/A,intermixed,2,correct,1109
20,2,yes,feature_memory,4,N/A,blocked,6,correct,1005
20,2,yes,feature_memory,5,N/A,blocked,4,correct,2093
20,2,yes,feature_memory,6,N/A,intermixed,1,correct,1013
20,2,yes,feature_memory,7,N/A,intermixed,3,correct,1055
20,2,yes,feature_memory,8,N/A,intermixed,2,correct,1150
20,2,yes,feature_memory,9,N/A,blocked,6,correct,958
20,2,yes,feature_memory,10,N/A,intermixed,3,correct,1646
20,2,yes,feature_memory,11,N/A,intermixed,1,correct,951
20,2,yes,feature_memory,12,N/A,blocked,5,correct,959
20,2,yes,feature_generalization,1,N/A,intermixed,1,correct,1485
20,2,yes,feature_generalization,2,N/A,blocked,6,correct,3701
20,2,yes,feature_generalization,3,N/A,intermixed,2,correct,1238
20,2,yes,feature_generalization,4,N/A,intermixed,3,correct,1407
20,2,yes,feature_generalization,5,N/A,blocked,5,incorrect,1182
20,2,yes,feature_generalization,6,N/A,intermixed,1,correct,1423
20,2,yes,feature_generalization,7,N/A,blocked,5,correct,1055
20,2,yes,feature_generalization,8,N/A,blocked,6,correct,1604
20,2,yes,feature_generalization,9,N/A,blocked,4,incorrect,1123
20,2,yes,feature_generalization,10,N/A,intermixed,3,incorrect,1742
20,2,yes,feature_generalization,11,N/A,blocked,4,incorrect,1021
20,2,yes,feature_generalization,12,N/A,intermixed,2,incorrect,982
20,2,yes,explicit_direct,1,BC,intermixed,2,correct,1740
20,2,yes,explicit_direct,2,BC,blocked,5,correct,1622
20,2,yes,explicit_direct,3,AB,intermixed,2,correct,1245
20,2,yes,explicit_direct,4,AB,blocked,6,correct,1612
20,2,yes,explicit_direct,5,BC,blocked,4,correct,1206
20,2,yes,explicit_direct,6,AB,blocked,5,correct,1864
20,2,yes,explicit_direct,7,BC,intermixed,2,correct,1175
20,2,yes,explicit_direct,8,AB,intermixed,3,correct,1262
20,2,yes,explicit_direct,9,AB,intermixed,2,correct,1140
20,2,yes,explicit_direct,10,BC,blocked,5,correct,1294
20,2,yes,explicit_direct,11,BC,blocked,4,correct,1375
20,2,yes,explicit_direct,12,AB,intermixed,3,correct,2165
20,2,yes,explicit_direct,13,AB,blocked,4,correct,1797
20,2,yes,explicit_direct,14,AB,intermixed,1,correct,1365
20,2,yes,explicit_direct,15,AB,blocked,5,correct,1205
20,2,yes,explicit_direct,16,BC,blocked,6,correct,1741
20,2,yes,explicit_direct,17,AB,intermixed,1,correct,1348
20,2,yes,explicit_direct,18,BC,intermixed,3,incorrect,1509
20,2,yes,explicit_direct,19,AB,blocked,4,incorrect,1830
20,2,yes,explicit_direct,20,BC,intermixed,1,correct,1700
20,2,yes,explicit_direct,21,AB,blocked,6,correct,1356
20,2,yes,explicit_direct,22,BC,intermixed,3,correct,1230
20,2,yes,explicit_direct,23,BC,blocked,6,correct,1383
20,2,yes,explicit_direct,24,BC,intermixed,1,correct,2006
21,2,yes,feature_memory,1,N/A,intermixed,1,correct,2606
21,2,yes,feature_memory,2,N/A,intermixed,3,correct,1887
21,2,yes,feature_memory,3,N/A,intermixed,2,incorrect,2710
21,2,yes,feature_memory,4,N/A,intermixed,3,correct,1422
21,2,yes,feature_memory,5,N/A,blocked,6,correct,2439
21,2,yes,feature_memory,6,N/A,blocked,4,correct,2607
21,2,yes,feature_memory,7,N/A,blocked,5,incorrect,3014
21,2,yes,feature_memory,8,N/A,intermixed,1,correct,1750
21,2,yes,feature_memory,9,N/A,blocked,5,N/A,N/A
21,2,yes,feature_memory,10,N/A,blocked,4,correct,1894
21,2,yes,feature_memory,11,N/A,blocked,6,incorrect,2646
21,2,yes,feature_memory,12,N/A,intermixed,2,correct,2943
21,2,yes,feature_generalization,1,N/A,blocked,6,incorrect,2293
21,2,yes,feature_generalization,2,N/A,intermixed,2,correct,2014
21,2,yes,feature_generalization,3,N/A,blocked,4,incorrect,1887
21,2,yes,feature_generalization,4,N/A,intermixed,2,incorrect,1838
21,2,yes,feature_generalization,5,N/A,intermixed,1,incorrect,1310
21,2,yes,feature_generalization,6,N/A,intermixed,3,correct,1527
21,2,yes,feature_generalization,7,N/A,intermixed,1,correct,1284
21,2,yes,feature_generalization,8,N/A,blocked,5,correct,1446
21,2,yes,feature_generalization,9,N/A,blocked,6,correct,1497
21,2,yes,feature_generalization,10,N/A,blocked,5,correct,1134
21,2,yes,feature_generalization,11,N/A,blocked,4,incorrect,1518
21,2,yes,feature_generalization,12,N/A,intermixed,3,correct,1974
21,2,yes,explicit_direct,1,BC,blocked,5,correct,5133
21,2,yes,explicit_direct,2,BC,blocked,4,correct,2543
21,2,yes,explicit_direct,3,BC,intermixed,1,correct,2167
21,2,yes,explicit_direct,4,AB,blocked,6,correct,1702
21,2,yes,explicit_direct,5,BC,intermixed,3,incorrect,3175
21,2,yes,explicit_direct,6,AB,intermixed,1,incorrect,1959
21,2,yes,explicit_direct,7,AB,intermixed,2,correct,1599
21,2,yes,explicit_direct,8,BC,blocked,4,correct,1254
21,2,yes,explicit_direct,9,BC,blocked,5,correct,3215
21,2,yes,explicit_direct,10,AB,blocked,4,correct,1286
21,2,yes,explicit_direct,11,AB,blocked,5,correct,2183
21,2,yes,explicit_direct,12,AB,intermixed,3,correct,2159
21,2,yes,explicit_direct,13,BC,intermixed,2,correct,1815
21,2,yes,explicit_direct,14,AB,blocked,6,correct,1150
21,2,yes,explicit_direct,15,BC,intermixed,2,correct,1037
21,2,yes,explicit_direct,16,BC,blocked,6,correct,1663
21,2,yes,explicit_direct,17,AB,intermixed,2,correct,2095
21,2,yes,explicit_direct,18,AB,blocked,5,incorrect,2327
21,2,yes,explicit_direct,19,AB,blocked,4,correct,1023
21,2,yes,explicit_direct,20,AB,intermixed,1,correct,1358
21,2,yes,explicit_direct,21,BC,blocked,6,correct,1032
21,2,yes,explicit_direct,22,BC,intermixed,3,correct,1557
21,2,yes,explicit_direct,23,BC,intermixed,1,correct,1567
21,2,yes,explicit_direct,24,AB,intermixed,3,correct,2070
22,2,yes,feature_memory,1,N/A,blocked,6,correct,1834
22,2,yes,feature_memory,2,N/A,intermixed,3,correct,1678
22,2,yes,feature_memory,3,N/A,intermixed,1,correct,1177
22,2,yes,feature_memory,4,N/A,intermixed,3,incorrect,3485
22,2,yes,feature_memory,5,N/A,blocked,4,correct,1755
22,2,yes,feature_memory,6,N/A,intermixed,2,correct,1748
22,2,yes,feature_memory,7,N/A,blocked,5,correct,1310
22,2,yes,feature_memory,8,N/A,blocked,6,correct,1534
22,2,yes,feature_memory,9,N/A,intermixed,2,correct,1739
22,2,yes,feature_memory,10,N/A,blocked,5,correct,1117
22,2,yes,feature_memory,11,N/A,blocked,4,correct,2390
22,2,yes,feature_memory,12,N/A,intermixed,1,correct,1272
22,2,yes,feature_generalization,1,N/A,blocked,5,incorrect,3849
22,2,yes,feature_generalization,2,N/A,blocked,6,N/A,N/A
22,2,yes,feature_generalization,3,N/A,blocked,4,correct,2101
22,2,yes,feature_generalization,4,N/A,intermixed,3,incorrect,1928
22,2,yes,feature_generalization,5,N/A,blocked,6,incorrect,1650
22,2,yes,feature_generalization,6,N/A,blocked,5,incorrect,1576
22,2,yes,feature_generalization,7,N/A,intermixed,1,correct,1733
22,2,yes,feature_generalization,8,N/A,intermixed,2,incorrect,2082
22,2,yes,feature_generalization,9,N/A,intermixed,1,correct,1489
22,2,yes,feature_generalization,10,N/A,blocked,4,correct,1989
22,2,yes,feature_generalization,11,N/A,intermixed,3,incorrect,2155
22,2,yes,feature_generalization,12,N/A,intermixed,2,correct,1766
22,2,yes,explicit_direct,1,AB,blocked,6,incorrect,2146
22,2,yes,explicit_direct,2,BC,blocked,4,correct,2048
22,2,yes,explicit_direct,3,BC,intermixed,1,correct,1850
22,2,yes,explicit_direct,4,BC,blocked,5,correct,2233
22,2,yes,explicit_direct,5,AB,intermixed,1,correct,3927
22,2,yes,explicit_direct,6,AB,blocked,4,correct,1069
22,2,yes,explicit_direct,7,BC,blocked,6,correct,1130
22,2,yes,explicit_direct,8,AB,blocked,5,correct,2834
22,2,yes,explicit_direct,9,AB,intermixed,1,correct,3818
22,2,yes,explicit_direct,10,AB,blocked,5,correct,4880
22,2,yes,explicit_direct,11,AB,intermixed,3,correct,1108
22,2,yes,explicit_direct,12,AB,blocked,6,correct,2106
22,2,yes,explicit_direct,13,AB,intermixed,2,correct,1117
22,2,yes,explicit_direct,14,AB,intermixed,3,correct,1021
22,2,yes,explicit_direct,15,AB,intermixed,2,correct,958
22,2,yes,explicit_direct,16,BC,blocked,5,correct,2108
22,2,yes,explicit_direct,17,BC,blocked,4,correct,1883
22,2,yes,explicit_direct,18,BC,intermixed,2,correct,1068
22,2,yes,explicit_direct,19,BC,intermixed,3,correct,981
22,2,yes,explicit_direct,20,AB,blocked,4,correct,1104
22,2,yes,explicit_direct,21,BC,intermixed,2,correct,1065
22,2,yes,explicit_direct,22,BC,intermixed,3,correct,1075
22,2,yes,explicit_direct,23,BC,blocked,6,correct,987
22,2,yes,explicit_direct,24,BC,intermixed,1,correct,1904
23,2,yes,feature_memory,1,N/A,intermixed,3,correct,2217
23,2,yes,feature_memory,2,N/A,blocked,5,correct,1032
23,2,yes,feature_memory,3,N/A,intermixed,3,correct,1491
23,2,yes,feature_memory,4,N/A,intermixed,2,correct,1061
23,2,yes,feature_memory,5,N/A,intermixed,1,correct,930
23,2,yes,feature_memory,6,N/A,blocked,6,correct,2355
23,2,yes,feature_memory,7,N/A,blocked,5,correct,1090
23,2,yes,feature_memory,8,N/A,blocked,4,correct,1402
23,2,yes,feature_memory,9,N/A,blocked,6,correct,1412
23,2,yes,feature_memory,10,N/A,intermixed,1,correct,1112
23,2,yes,feature_memory,11,N/A,intermixed,2,correct,1503
23,2,yes,feature_memory,12,N/A,blocked,4,correct,1362
23,2,yes,feature_generalization,1,N/A,intermixed,1,N/A,N/A
23,2,yes,feature_generalization,2,N/A,blocked,4,correct,1657
23,2,yes,feature_generalization,3,N/A,intermixed,3,incorrect,1780
23,2,yes,feature_generalization,4,N/A,blocked,5,correct,2024
23,2,yes,feature_generalization,5,N/A,intermixed,2,incorrect,1402
23,2,yes,feature_generalization,6,N/A,blocked,6,incorrect,1683
23,2,yes,feature_generalization,7,N/A,intermixed,2,incorrect,1413
23,2,yes,feature_generalization,8,N/A,blocked,5,correct,2216
23,2,yes,feature_generalization,9,N/A,intermixed,1,incorrect,1222
23,2,yes,feature_generalization,10,N/A,blocked,6,correct,1451
23,2,yes,feature_generalization,11,N/A,intermixed,3,incorrect,2307
23,2,yes,feature_generalization,12,N/A,blocked,4,correct,1527
23,2,yes,explicit_direct,1,AB,intermixed,1,correct,1280
23,2,yes,explicit_direct,2,AB,blocked,4,correct,1253
23,2,yes,explicit_direct,3,BC,blocked,6,correct,1121
23,2,yes,explicit_direct,4,BC,intermixed,1,incorrect,2113
23,2,yes,explicit_direct,5,BC,intermixed,2,correct,3378
23,2,yes,explicit_direct,6,BC,blocked,5,correct,2695
23,2,yes,explicit_direct,7,AB,intermixed,3,correct,2002
23,2,yes,explicit_direct,8,BC,intermixed,1,correct,2885
23,2,yes,explicit_direct,9,BC,blocked,6,correct,1032
23,2,yes,explicit_direct,10,AB,blocked,5,correct,3237
23,2,yes,explicit_direct,11,BC,blocked,4,correct,1259
23,2,yes,explicit_direct,12,BC,intermixed,2,correct,2274
23,2,yes,explicit_direct,13,BC,intermixed,3,correct,1261
23,2,yes,explicit_direct,14,BC,blocked,4,correct,1664
23,2,yes,explicit_direct,15,AB,intermixed,1,correct,1492
23,2,yes,explicit_direct,16,BC,blocked,5,incorrect,1431
23,2,yes,explicit_direct,17,AB,intermixed,3,correct,1906
23,2,yes,explicit_direct,18,AB,intermixed,2,correct,1412
23,2,yes,explicit_direct,19,AB,blocked,6,incorrect,2095
23,2,yes,explicit_direct,20,AB,blocked,5,correct,1493
23,2,yes,explicit_direct,21,AB,blocked,6,correct,1816
23,2,yes,explicit_direct,22,AB,blocked,4,correct,1371
23,2,yes,explicit_direct,23,AB,intermixed,2,correct,752
23,2,yes,explicit_direct,24,BC,intermixed,3,correct,3567
24,2,yes,feature_memory,1,N/A,intermixed,1,correct,2148
24,2,yes,feature_memory,2,N/A,blocked,4,correct,1662
24,2,yes,feature_memory,3,N/A,blocked,6,correct,1422
24,2,yes,feature_memory,4,N/A,intermixed,3,correct,1511
24,2,yes,feature_memory,5,N/A,blocked,6,correct,1383
24,2,yes,feature_memory,6,N/A,intermixed,1,correct,958
24,2,yes,feature_memory,7,N/A,intermixed,3,correct,1359
24,2,yes,feature_memory,8,N/A,intermixed,2,correct,1726
24,2,yes,feature_memory,9,N/A,blocked,4,correct,1302
24,2,yes,feature_memory,10,N/A,blocked,5,correct,1246
24,2,yes,feature_memory,11,N/A,intermixed,2,correct,1278
24,2,yes,feature_memory,12,N/A,blocked,5,correct,2166
24,2,yes,feature_generalization,1,N/A,intermixed,2,N/A,N/A
24,2,yes,feature_generalization,2,N/A,intermixed,3,N/A,N/A
24,2,yes,feature_generalization,3,N/A,intermixed,1,N/A,N/A
24,2,yes,feature_generalization,4,N/A,blocked,6,N/A,N/A
24,2,yes,feature_generalization,5,N/A,intermixed,2,correct,3558
24,2,yes,feature_generalization,6,N/A,blocked,6,incorrect,2694
24,2,yes,feature_generalization,7,N/A,intermixed,1,incorrect,3182
24,2,yes,feature_generalization,8,N/A,blocked,4,incorrect,2246
24,2,yes,feature_generalization,9,N/A,blocked,5,correct,3198
24,2,yes,feature_generalization,10,N/A,intermixed,3,N/A,N/A
24,2,yes,feature_generalization,11,N/A,blocked,5,N/A,N/A
24,2,yes,feature_generalization,12,N/A,blocked,4,N/A,N/A
24,2,yes,explicit_direct,1,AB,intermixed,2,N/A,N/A
24,2,yes,explicit_direct,2,AB,intermixed,3,correct,4198
24,2,yes,explicit_direct,3,AB,blocked,5,correct,2029
24,2,yes,explicit_direct,4,AB,intermixed,1,incorrect,2783
24,2,yes,explicit_direct,5,AB,blocked,5,correct,2103
24,2,yes,explicit_direct,6,BC,intermixed,3,correct,2446
24,2,yes,explicit_direct,7,BC,intermixed,1,correct,2165
24,2,yes,explicit_direct,8,AB,blocked,6,correct,1973
24,2,yes,explicit_direct,9,AB,intermixed,2,correct,2476
24,2,yes,explicit_direct,10,BC,blocked,5,correct,2222
24,2,yes,explicit_direct,11,AB,blocked,4,correct,1886
24,2,yes,explicit_direct,12,BC,intermixed,2,correct,2032
24,2,yes,explicit_direct,13,BC,intermixed,1,incorrect,2423
24,2,yes,explicit_direct,14,BC,blocked,4,correct,2684
24,2,yes,explicit_direct,15,BC,blocked,6,correct,1781
24,2,yes,explicit_direct,16,AB,blocked,4,correct,2318
24,2,yes,explicit_direct,17,BC,blocked,6,incorrect,1638
24,2,yes,explicit_direct,18,BC,blocked,5,correct,2232
24,2,yes,explicit_direct,19,BC,intermixed,3,correct,1909
24,2,yes,explicit_direct,20,AB,intermixed,1,incorrect,2335
24,2,yes,explicit_direct,21,BC,blocked,4,correct,2068
24,2,yes,explicit_direct,22,AB,intermixed,3,correct,2540
24,2,yes,explicit_direct,23,BC,intermixed,2,correct,2053
24,2,yes,explicit_direct,24,AB,blocked,6,correct,1231
25,2,yes,feature_memory,1,N/A,blocked,5,correct,2082
25,2,yes,feature_memory,2,N/A,intermixed,3,correct,1295
25,2,yes,feature_memory,3,N/A,blocked,6,correct,1279
25,2,yes,feature_memory,4,N/A,blocked,4,correct,2519
25,2,yes,feature_memory,5,N/A,intermixed,3,correct,2398
25,2,yes,feature_memory,6,N/A,blocked,5,correct,1479
25,2,yes,feature_memory,7,N/A,intermixed,1,correct,2287
25,2,yes,feature_memory,8,N/A,intermixed,2,correct,1696
25,2,yes,feature_memory,9,N/A,blocked,6,correct,1990
25,2,yes,feature_memory,10,N/A,blocked,4,correct,2623
25,2,yes,feature_memory,11,N/A,intermixed,1,correct,1548
25,2,yes,feature_memory,12,N/A,intermixed,2,correct,2262
25,2,yes,feature_generalization,1,N/A,intermixed,1,N/A,N/A
25,2,yes,feature_generalization,2,N/A,blocked,4,incorrect,3127
25,2,yes,feature_generalization,3,N/A,intermixed,1,correct,1921
25,2,yes,feature_generalization,4,N/A,intermixed,3,correct,2286
25,2,yes,feature_generalization,5,N/A,blocked,5,incorrect,2760
25,2,yes,feature_generalization,6,N/A,blocked,6,N/A,N/A
25,2,yes,feature_generalization,7,N/A,intermixed,2,correct,3295
25,2,yes,feature_generalization,8,N/A,blocked,5,incorrect,1979
25,2,yes,feature_generalization,9,N/A,intermixed,3,incorrect,2814
25,2,yes,feature_generalization,10,N/A,blocked,4,incorrect,2941
25,2,yes,feature_generalization,11,N/A,intermixed,2,incorrect,2525
25,2,yes,feature_generalization,12,N/A,blocked,6,incorrect,2670
25,2,yes,explicit_direct,1,AB,blocked,4,N/A,N/A
25,2,yes,explicit_direct,2,BC,blocked,6,correct,2839
25,2,yes,explicit_direct,3,BC,intermixed,1,incorrect,1894
25,2,yes,explicit_direct,4,BC,intermixed,3,incorrect,1430
25,2,yes,explicit_direct,5,BC,blocked,5,incorrect,3349
25,2,yes,explicit_direct,6,AB,blocked,6,correct,3461
25,2,yes,explicit_direct,7,BC,intermixed,3,correct,2735
25,2,yes,explicit_direct,8,BC,blocked,6,incorrect,1612
25,2,yes,explicit_direct,9,BC,blocked,4,incorrect,663
25,2,yes,explicit_direct,10,BC,intermixed,1,correct,2261
25,2,yes,explicit_direct,11,AB,blocked,5,correct,1281
25,2,yes,explicit_direct,12,AB,blocked,4,correct,2294
25,2,yes,explicit_direct,13,AB,intermixed,3,correct,2774
25,2,yes,explicit_direct,14,BC,intermixed,2,incorrect,2446
25,2,yes,explicit_direct,15,BC,blocked,4,correct,2573
25,2,yes,explicit_direct,16,AB,intermixed,1,incorrect,663
25,2,yes,explicit_direct,17,BC,intermixed,2,incorrect,748
25,2,yes,explicit_direct,18,AB,intermixed,1,correct,991
25,2,yes,explicit_direct,19,BC,blocked,5,incorrect,1133
25,2,yes,explicit_direct,20,AB,blocked,6,correct,623
25,2,yes,explicit_direct,21,AB,intermixed,3,correct,1488
25,2,yes,explicit_direct,22,AB,intermixed,2,correct,1335
25,2,yes,explicit_direct,23,AB,blocked,5,incorrect,768
25,2,yes,explicit_direct,24,AB,intermixed,2,incorrect,2612
26,2,yes,feature_memory,1,N/A,blocked,5,correct,3620
26,2,yes,feature_memory,2,N/A,intermixed,1,correct,2988
26,2,yes,feature_memory,3,N/A,intermixed,3,correct,2666
26,2,yes,feature_memory,4,N/A,blocked,6,correct,2895
26,2,yes,feature_memory,5,N/A,intermixed,2,correct,2481
26,2,yes,feature_memory,6,N/A,blocked,4,correct,2458
26,2,yes,feature_memory,7,N/A,blocked,5,correct,1614
26,2,yes,feature_memory,8,N/A,intermixed,1,correct,1968
26,2,yes,feature_memory,9,N/A,blocked,6,correct,2670
26,2,yes,feature_memory,10,N/A,intermixed,2,correct,2326
26,2,yes,feature_memory,11,N/A,blocked,4,correct,1809
26,2,yes,feature_memory,12,N/A,intermixed,3,correct,2643
26,2,yes,feature_generalization,1,N/A,intermixed,1,incorrect,2644
26,2,yes,feature_generalization,2,N/A,blocked,6,correct,3674
26,2,yes,feature_generalization,3,N/A,intermixed,3,incorrect,2883
26,2,yes,feature_generalization,4,N/A,intermixed,1,incorrect,1671
26,2,yes,feature_generalization,5,N/A,blocked,5,incorrect,3396
26,2,yes,feature_generalization,6,N/A,intermixed,2,correct,2168
26,2,yes,feature_generalization,7,N/A,blocked,6,correct,2987
26,2,yes,feature_generalization,8,N/A,intermixed,2,correct,1479
26,2,yes,feature_generalization,9,N/A,blocked,4,correct,3366
26,2,yes,feature_generalization,10,N/A,intermixed,3,incorrect,2193
26,2,yes,feature_generalization,11,N/A,blocked,4,correct,1759
26,2,yes,feature_generalization,12,N/A,blocked,5,incorrect,2027
26,2,yes,explicit_direct,1,AB,intermixed,1,correct,3359
26,2,yes,explicit_direct,2,BC,intermixed,2,correct,2381
26,2,yes,explicit_direct,3,BC,blocked,5,correct,3413
26,2,yes,explicit_direct,4,BC,intermixed,1,correct,2727
26,2,yes,explicit_direct,5,AB,blocked,6,correct,4549
26,2,yes,explicit_direct,6,BC,blocked,4,correct,4158
26,2,yes,explicit_direct,7,BC,intermixed,3,correct,3428
26,2,yes,explicit_direct,8,AB,blocked,6,correct,3428
26,2,yes,explicit_direct,9,AB,intermixed,3,correct,4890
26,2,yes,explicit_direct,10,BC,blocked,6,correct,2827
26,2,yes,explicit_direct,11,AB,intermixed,2,correct,1909
26,2,yes,explicit_direct,12,AB,blocked,4,correct,3621
26,2,yes,explicit_direct,13,BC,blocked,5,correct,4387
26,2,yes,explicit_direct,14,AB,blocked,4,correct,2773
26,2,yes,explicit_direct,15,BC,intermixed,1,correct,3936
26,2,yes,explicit_direct,16,AB,intermixed,2,correct,2485
26,2,yes,explicit_direct,17,AB,blocked,5,correct,5327
26,2,yes,explicit_direct,18,AB,intermixed,3,correct,1728
26,2,yes,explicit_direct,19,AB,intermixed,1,incorrect,4941
26,2,yes,explicit_direct,20,BC,blocked,4,correct,2142
26,2,yes,explicit_direct,21,BC,intermixed,3,correct,2173
26,2,yes,explicit_direct,22,BC,intermixed,2,correct,1531
26,2,yes,explicit_direct,23,BC,blocked,6,correct,2714
26,2,yes,explicit_direct,24,AB,blocked,5,correct,2932
27,2,yes,feature_memory,1,N/A,intermixed,2,incorrect,2104
27,2,yes,feature_memory,2,N/A,blocked,6,correct,2335
27,2,yes,feature_memory,3,N/A,intermixed,1,correct,1276
27,2,yes,feature_memory,4,N/A,intermixed,2,correct,1628
27,2,yes,feature_memory,5,N/A,intermixed,1,correct,994
27,2,yes,feature_memory,6,N/A,blocked,6,correct,1542
27,2,yes,feature_memory,7,N/A,intermixed,3,correct,1940
27,2,yes,feature_memory,8,N/A,blocked,5,correct,2765
27,2,yes,feature_memory,9,N/A,intermixed,3,correct,1268
27,2,yes,feature_memory,10,N/A,blocked,4,correct,1395
27,2,yes,feature_memory,11,N/A,blocked,5,correct,1702
27,2,yes,feature_memory,12,N/A,blocked,4,correct,1469
27,2,yes,feature_generalization,1,N/A,intermixed,1,correct,2330
27,2,yes,feature_generalization,2,N/A,blocked,6,correct,1627
27,2,yes,feature_generalization,3,N/A,blocked,5,correct,2395
27,2,yes,feature_generalization,4,N/A,intermixed,3,incorrect,2045
27,2,yes,feature_generalization,5,N/A,blocked,4,correct,1971
27,2,yes,feature_generalization,6,N/A,intermixed,3,correct,1899
27,2,yes,feature_generalization,7,N/A,blocked,6,incorrect,2155
27,2,yes,feature_generalization,8,N/A,blocked,5,correct,1566
27,2,yes,feature_generalization,9,N/A,intermixed,2,incorrect,1423
27,2,yes,feature_generalization,10,N/A,blocked,4,incorrect,1629
27,2,yes,feature_generalization,11,N/A,intermixed,1,correct,1732
27,2,yes,feature_generalization,12,N/A,intermixed,2,correct,1633
27,2,yes,explicit_direct,1,BC,intermixed,3,correct,1525
27,2,yes,explicit_direct,2,AB,intermixed,1,correct,2015
27,2,yes,explicit_direct,3,AB,blocked,4,correct,1715
27,2,yes,explicit_direct,4,BC,intermixed,2,correct,1491
27,2,yes,explicit_direct,5,AB,intermixed,3,correct,1015
27,2,yes,explicit_direct,6,BC,blocked,6,correct,1107
27,2,yes,explicit_direct,7,BC,intermixed,1,correct,1539
27,2,yes,explicit_direct,8,BC,blocked,4,correct,1902
27,2,yes,explicit_direct,9,AB,intermixed,1,correct,1140
27,2,yes,explicit_direct,10,AB,blocked,5,correct,1232
27,2,yes,explicit_direct,11,AB,blocked,6,correct,1655
27,2,yes,explicit_direct,12,BC,intermixed,3,correct,1191
27,2,yes,explicit_direct,13,AB,blocked,4,correct,1704
27,2,yes,explicit_direct,14,BC,intermixed,2,correct,1557
27,2,yes,explicit_direct,15,AB,intermixed,3,correct,1102
27,2,yes,explicit_direct,16,AB,blocked,6,correct,913
27,2,yes,explicit_direct,17,BC,intermixed,1,correct,1806
27,2,yes,explicit_direct,18,AB,blocked,5,correct,1918
27,2,yes,explicit_direct,19,BC,blocked,4,correct,1867
27,2,yes,explicit_direct,20,BC,blocked,5,incorrect,1113
27,2,yes,explicit_direct,21,AB,intermixed,2,correct,2158
27,2,yes,explicit_direct,22,BC,blocked,6,correct,1135
27,2,yes,explicit_direct,23,BC,blocked,5,correct,2047
27,2,yes,explicit_direct,24,AB,intermixed,2,incorrect,2297
28,2,,feature_memory,1,N/A,blocked,6,correct,1694
28,2,,feature_memory,2,N/A,intermixed,3,correct,1222
28,2,,feature_memory,3,N/A,blocked,5,correct,1846
28,2,,feature_memory,4,N/A,intermixed,1,correct,1758
28,2,,feature_memory,5,N/A,intermixed,2,correct,1302
28,2,,feature_memory,6,N/A,intermixed,1,correct,1310
28,2,,feature_memory,7,N/A,blocked,4,correct,1398
28,2,,feature_memory,8,N/A,intermixed,2,correct,1108
28,2,,feature_memory,9,N/A,intermixed,3,correct,1134
28,2,,feature_memory,10,N/A,blocked,5,correct,1303
28,2,,feature_memory,11,N/A,blocked,6,correct,1294
28,2,,feature_memory,12,N/A,blocked,4,correct,1239
28,2,,feature_generalization,1,N/A,intermixed,2,incorrect,1909
28,2,,feature_generalization,2,N/A,blocked,5,incorrect,3374
28,2,,feature_generalization,3,N/A,blocked,6,correct,3430
28,2,,feature_generalization,4,N/A,intermixed,2,incorrect,1631
28,2,,feature_generalization,5,N/A,intermixed,1,correct,1847
28,2,,feature_generalization,6,N/A,intermixed,3,correct,2935
28,2,,feature_generalization,7,N/A,intermixed,1,correct,2216
28,2,,feature_generalization,8,N/A,blocked,4,incorrect,3150
28,2,,feature_generalization,9,N/A,intermixed,3,correct,2310
28,2,,feature_generalization,10,N/A,blocked,4,incorrect,2542
28,2,,feature_generalization,11,N/A,blocked,6,correct,1926
28,2,,feature_generalization,12,N/A,blocked,5,incorrect,3197
28,2,,explicit_direct,1,AB,blocked,5,correct,2981
28,2,,explicit_direct,2,BC,blocked,6,correct,1974
28,2,,explicit_direct,3,BC,blocked,4,correct,1870
28,2,,explicit_direct,4,BC,intermixed,2,correct,1437
28,2,,explicit_direct,5,BC,intermixed,3,correct,1262
28,2,,explicit_direct,6,AB,blocked,5,correct,1399
28,2,,explicit_direct,7,BC,intermixed,1,correct,1510
28,2,,explicit_direct,8,AB,intermixed,3,correct,1318
28,2,,explicit_direct,9,AB,blocked,4,incorrect,3110
28,2,,explicit_direct,10,BC,intermixed,2,correct,1831
28,2,,explicit_direct,11,BC,blocked,4,correct,1280
28,2,,explicit_direct,12,AB,intermixed,1,correct,1150
28,2,,explicit_direct,13,AB,intermixed,2,correct,1766
28,2,,explicit_direct,14,AB,blocked,6,incorrect,2630
28,2,,explicit_direct,15,AB,blocked,4,correct,3062
28,2,,explicit_direct,16,AB,intermixed,1,correct,1527
28,2,,explicit_direct,17,BC,blocked,5,correct,1990
28,2,,explicit_direct,18,AB,blocked,6,correct,3022
28,2,,explicit_direct,19,BC,intermixed,3,correct,1734
28,2,,explicit_direct,20,AB,intermixed,2,correct,1471
28,2,,explicit_direct,21,BC,blocked,5,correct,1479
28,2,,explicit_direct,22,BC,intermixed,1,correct,1550
28,2,,explicit_direct,23,AB,intermixed,3,correct,1567
28,2,,explicit_direct,24,BC,blocked,6,correct,1398
29,2,yes,feature_memory,1,N/A,blocked,4,correct,2196
29,2,yes,feature_memory,2,N/A,intermixed,3,correct,1644
29,2,yes,feature_memory,3,N/A,blocked,5,correct,1228
29,2,yes,feature_memory,4,N/A,intermixed,3,correct,2116
29,2,yes,feature_memory,5,N/A,intermixed,2,correct,1714
29,2,yes,feature_memory,6,N/A,blocked,6,correct,1671
29,2,yes,feature_memory,7,N/A,intermixed,1,correct,1429
29,2,yes,feature_memory,8,N/A,blocked,5,correct,1630
29,2,yes,feature_memory,9,N/A,intermixed,2,correct,1602
29,2,yes,feature_memory,10,N/A,blocked,6,correct,1172
29,2,yes,feature_memory,11,N/A,blocked,4,correct,1540
29,2,yes,feature_memory,12,N/A,intermixed,1,correct,1352
29,2,yes,feature_generalization,1,N/A,intermixed,1,correct,1280
29,2,yes,feature_generalization,2,N/A,intermixed,2,correct,1961
29,2,yes,feature_generalization,3,N/A,intermixed,3,correct,2451
29,2,yes,feature_generalization,4,N/A,intermixed,2,correct,2756
29,2,yes,feature_generalization,5,N/A,intermixed,1,correct,1637
29,2,yes,feature_generalization,6,N/A,blocked,5,correct,1860
29,2,yes,feature_generalization,7,N/A,blocked,4,incorrect,2462
29,2,yes,feature_generalization,8,N/A,blocked,6,incorrect,2319
29,2,yes,feature_generalization,9,N/A,blocked,4,correct,2750
29,2,yes,feature_generalization,10,N/A,blocked,5,correct,1575
29,2,yes,feature_generalization,11,N/A,intermixed,3,correct,1886
29,2,yes,feature_generalization,12,N/A,blocked,6,N/A,N/A
29,2,yes,explicit_direct,1,AB,blocked,6,correct,1613
29,2,yes,explicit_direct,2,AB,intermixed,2,correct,1490
29,2,yes,explicit_direct,3,AB,blocked,5,correct,1180
29,2,yes,explicit_direct,4,BC,intermixed,1,correct,1471
29,2,yes,explicit_direct,5,AB,blocked,6,correct,1215
29,2,yes,explicit_direct,6,BC,intermixed,2,correct,1923
29,2,yes,explicit_direct,7,AB,intermixed,3,correct,1497
29,2,yes,explicit_direct,8,BC,intermixed,1,correct,1444
29,2,yes,explicit_direct,9,BC,intermixed,3,correct,1568
29,2,yes,explicit_direct,10,BC,blocked,5,correct,1431
29,2,yes,explicit_direct,11,AB,blocked,4,correct,1387
29,2,yes,explicit_direct,12,AB,blocked,5,correct,1165
29,2,yes,explicit_direct,13,BC,blocked,6,correct,1157
29,2,yes,explicit_direct,14,AB,blocked,4,correct,1319
29,2,yes,explicit_direct,15,BC,intermixed,3,correct,1082
29,2,yes,explicit_direct,16,BC,intermixed,2,correct,1241
29,2,yes,explicit_direct,17,AB,intermixed,1,correct,1789
29,2,yes,explicit_direct,18,BC,blocked,4,correct,2513
29,2,yes,explicit_direct,19,AB,intermixed,1,correct,1378
29,2,yes,explicit_direct,20,BC,blocked,4,correct,2673
29,2,yes,explicit_direct,21,BC,blocked,5,correct,1256
29,2,yes,explicit_direct,22,AB,intermixed,3,correct,1338
29,2,yes,explicit_direct,23,AB,intermixed,2,correct,1362
29,2,yes,explicit_direct,24,BC,blocked,6,correct,1346
30,2,yes,feature_memory,1,N/A,blocked,5,correct,3642
30,2,yes,feature_memory,2,N/A,intermixed,1,correct,1708
30,2,yes,feature_memory,3,N/A,blocked,4,correct,1275
30,2,yes,feature_memory,4,N/A,intermixed,3,correct,2108
30,2,yes,feature_memory,5,N/A,blocked,6,correct,1791
30,2,yes,feature_memory,6,N/A,intermixed,2,correct,1454
30,2,yes,feature_memory,7,N/A,blocked,5,correct,2267
30,2,yes,feature_memory,8,N/A,intermixed,2,correct,1326
30,2,yes,feature_memory,9,N/A,blocked,6,correct,1848
30,2,yes,feature_memory,10,N/A,intermixed,3,correct,1490
30,2,yes,feature_memory,11,N/A,intermixed,1,correct,1237
30,2,yes,feature_memory,12,N/A,blocked,4,correct,986
30,2,yes,feature_generalization,1,N/A,blocked,6,incorrect,1612
30,2,yes,feature_generalization,2,N/A,intermixed,2,incorrect,1523
30,2,yes,feature_generalization,3,N/A,blocked,6,incorrect,2161
30,2,yes,feature_generalization,4,N/A,blocked,4,correct,1988
30,2,yes,feature_generalization,5,N/A,intermixed,1,incorrect,1359
30,2,yes,feature_generalization,6,N/A,intermixed,3,incorrect,1645
30,2,yes,feature_generalization,7,N/A,intermixed,2,incorrect,1088
30,2,yes,feature_generalization,8,N/A,blocked,5,incorrect,1458
30,2,yes,feature_generalization,9,N/A,intermixed,3,incorrect,1030
30,2,yes,feature_generalization,10,N/A,intermixed,1,incorrect,1058
30,2,yes,feature_generalization,11,N/A,blocked,4,incorrect,1212
30,2,yes,feature_generalization,12,N/A,blocked,5,incorrect,1447
30,2,yes,explicit_direct,1,AB,intermixed,3,incorrect,3805
30,2,yes,explicit_direct,2,BC,blocked,6,correct,1658
30,2,yes,explicit_direct,3,BC,blocked,5,correct,1925
30,2,yes,explicit_direct,4,BC,blocked,4,correct,1683
30,2,yes,explicit_direct,5,AB,intermixed,1,correct,1739
30,2,yes,explicit_direct,6,AB,blocked,4,incorrect,3631
30,2,yes,explicit_direct,7,BC,intermixed,3,incorrect,2272
30,2,yes,explicit_direct,8,BC,intermixed,1,incorrect,2824
30,2,yes,explicit_direct,9,BC,blocked,6,correct,1413
30,2,yes,explicit_direct,10,AB,blocked,4,incorrect,1541
30,2,yes,explicit_direct,11,AB,intermixed,2,correct,3282
30,2,yes,explicit_direct,12,BC,intermixed,3,incorrect,2073
30,2,yes,explicit_direct,13,AB,intermixed,1,incorrect,2368
30,2,yes,explicit_direct,14,BC,intermixed,2,incorrect,1714
30,2,yes,explicit_direct,15,AB,blocked,5,correct,1134
30,2,yes,explicit_direct,16,BC,intermixed,2,correct,1337
30,2,yes,explicit_direct,17,AB,blocked,5,incorrect,1871
30,2,yes,explicit_direct,18,AB,blocked,6,correct,1771
30,2,yes,explicit_direct,19,BC,intermixed,1,correct,1508
30,2,yes,explicit_direct,20,BC,blocked,4,incorrect,1209
30,2,yes,explicit_direct,21,AB,intermixed,2,correct,1810
30,2,yes,explicit_direct,22,AB,intermixed,3,correct,1398
30,2,yes,explicit_direct,23,BC,blocked,5,incorrect,1436
30,2,yes,explicit_direct,24,AB,blocked,6,correct,1380
31,2,yes,feature_memory,1,N/A,intermixed,3,correct,3287
31,2,yes,feature_memory,2,N/A,blocked,4,correct,1791
31,2,yes,feature_memory,3,N/A,blocked,6,correct,1336
31,2,yes,feature_memory,4,N/A,blocked,4,correct,1970
31,2,yes,feature_memory,5,N/A,blocked,6,correct,1541
31,2,yes,feature_memory,6,N/A,intermixed,1,correct,1322
31,2,yes,feature_memory,7,N/A,intermixed,2,correct,1520
31,2,yes,feature_memory,8,N/A,blocked,5,correct,1174
31,2,yes,feature_memory,9,N/A,intermixed,3,correct,1704
31,2,yes,feature_memory,10,N/A,blocked,5,correct,1334
31,2,yes,feature_memory,11,N/A,intermixed,2,correct,1423
31,2,yes,feature_memory,12,N/A,intermixed,1,correct,1527
31,2,yes,feature_generalization,1,N/A,blocked,5,correct,2108
31,2,yes,feature_generalization,2,N/A,intermixed,2,correct,2501
31,2,yes,feature_generalization,3,N/A,intermixed,3,correct,2393
31,2,yes,feature_generalization,4,N/A,intermixed,1,correct,2085
31,2,yes,feature_generalization,5,N/A,intermixed,3,correct,1749
31,2,yes,feature_generalization,6,N/A,intermixed,2,correct,2013
31,2,yes,feature_generalization,7,N/A,blocked,6,correct,1902
31,2,yes,feature_generalization,8,N/A,blocked,4,correct,1629
31,2,yes,feature_generalization,9,N/A,blocked,6,incorrect,2198
31,2,yes,feature_generalization,10,N/A,blocked,4,correct,2489
31,2,yes,feature_generalization,11,N/A,intermixed,1,correct,1846
31,2,yes,feature_generalization,12,N/A,blocked,5,correct,2325
31,2,yes,explicit_direct,1,AB,blocked,6,correct,1821
31,2,yes,explicit_direct,2,BC,blocked,4,correct,4391
31,2,yes,explicit_direct,3,AB,intermixed,1,correct,1518
31,2,yes,explicit_direct,4,AB,blocked,4,correct,2449
31,2,yes,explicit_direct,5,AB,intermixed,2,correct,1850
31,2,yes,explicit_direct,6,AB,blocked,4,correct,1386
31,2,yes,explicit_direct,7,AB,intermixed,3,correct,1603
31,2,yes,explicit_direct,8,BC,blocked,5,correct,1352
31,2,yes,explicit_direct,9,BC,blocked,6,incorrect,1928
31,2,yes,explicit_direct,10,BC,intermixed,1,correct,1869
31,2,yes,explicit_direct,11,BC,intermixed,3,incorrect,2277
31,2,yes,explicit_direct,12,AB,blocked,6,correct,1605
31,2,yes,explicit_direct,13,BC,intermixed,3,correct,2206
31,2,yes,explicit_direct,14,AB,blocked,5,correct,1388
31,2,yes,explicit_direct,15,AB,intermixed,3,correct,1890
31,2,yes,explicit_direct,16,BC,blocked,6,correct,1727
31,2,yes,explicit_direct,17,BC,intermixed,2,correct,3478
31,2,yes,explicit_direct,18,AB,blocked,5,correct,1214
31,2,yes,explicit_direct,19,BC,blocked,4,correct,1762
31,2,yes,explicit_direct,20,BC,intermixed,1,correct,1409
31,2,yes,explicit_direct,21,AB,intermixed,2,correct,1441
31,2,yes,explicit_direct,22,AB,intermixed,1,correct,1547
31,2,yes,explicit_direct,23,BC,blocked,5,correct,1317
31,2,yes,explicit_direct,24,BC,intermixed,2,correct,1887
32,2,yes,feature_memory,1,N/A,intermixed,2,correct,1987
32,2,yes,feature_memory,2,N/A,intermixed,1,correct,1607
32,2,yes,feature_memory,3,N/A,blocked,5,correct,1679
32,2,yes,feature_memory,4,N/A,blocked,4,correct,1597
32,2,yes,feature_memory,5,N/A,blocked,6,correct,1243
32,2,yes,feature_memory,6,N/A,intermixed,3,correct,1637
32,2,yes,feature_memory,7,N/A,blocked,6,correct,1311
32,2,yes,feature_memory,8,N/A,blocked,4,correct,1214
32,2,yes,feature_memory,9,N/A,blocked,5,correct,1312
32,2,yes,feature_memory,10,N/A,intermixed,1,correct,1596
32,2,yes,feature_memory,11,N/A,intermixed,2,correct,1854
32,2,yes,feature_memory,12,N/A,intermixed,3,correct,1529
32,2,yes,feature_generalization,1,N/A,blocked,6,correct,1459
32,2,yes,feature_generalization,2,N/A,intermixed,3,correct,2197
32,2,yes,feature_generalization,3,N/A,blocked,6,correct,1453
32,2,yes,feature_generalization,4,N/A,blocked,4,incorrect,1708
32,2,yes,feature_generalization,5,N/A,intermixed,2,incorrect,2036
32,2,yes,feature_generalization,6,N/A,intermixed,1,correct,1262
32,2,yes,feature_generalization,7,N/A,intermixed,2,incorrect,1304
32,2,yes,feature_generalization,8,N/A,intermixed,1,correct,1802
32,2,yes,feature_generalization,9,N/A,intermixed,3,incorrect,1652
32,2,yes,feature_generalization,10,N/A,blocked,5,incorrect,1444
32,2,yes,feature_generalization,11,N/A,blocked,4,incorrect,1408
32,2,yes,feature_generalization,12,N/A,blocked,5,incorrect,1527
32,2,yes,explicit_direct,1,BC,intermixed,3,correct,1682
32,2,yes,explicit_direct,2,AB,blocked,6,correct,1486
32,2,yes,explicit_direct,3,BC,intermixed,2,correct,2472
32,2,yes,explicit_direct,4,BC,intermixed,1,correct,1310
32,2,yes,explicit_direct,5,BC,blocked,4,correct,1414
32,2,yes,explicit_direct,6,AB,intermixed,2,correct,1090
32,2,yes,explicit_direct,7,AB,intermixed,3,correct,1991
32,2,yes,explicit_direct,8,AB,blocked,5,correct,1224
32,2,yes,explicit_direct,9,BC,intermixed,2,correct,1769
32,2,yes,explicit_direct,10,AB,blocked,4,correct,2025
32,2,yes,explicit_direct,11,AB,intermixed,1,correct,1836
32,2,yes,explicit_direct,12,AB,blocked,5,correct,1386
32,2,yes,explicit_direct,13,AB,blocked,6,correct,2128
32,2,yes,explicit_direct,14,BC,blocked,4,correct,1275
32,2,yes,explicit_direct,15,BC,blocked,6,correct,2932
32,2,yes,explicit_direct,16,AB,intermixed,3,correct,1387
32,2,yes,explicit_direct,17,BC,blocked,6,correct,2327
32,2,yes,explicit_direct,18,BC,blocked,5,incorrect,4324
32,2,yes,explicit_direct,19,AB,blocked,4,correct,2057
32,2,yes,explicit_direct,20,BC,intermixed,3,correct,1261
32,2,yes,explicit_direct,21,AB,intermixed,1,correct,1368
32,2,yes,explicit_direct,22,BC,blocked,5,correct,2885
32,2,yes,explicit_direct,23,AB,intermixed,2,correct,1229
32,2,yes,explicit_direct,24,BC,intermixed,1,correct,2311
33,2,yes,feature_memory,1,N/A,blocked,4,correct,1698
33,2,yes,feature_memory,2,N/A,intermixed,2,correct,1239
33,2,yes,feature_memory,3,N/A,intermixed,3,correct,1071
33,2,yes,feature_memory,4,N/A,blocked,5,correct,1271
33,2,yes,feature_memory,5,N/A,intermixed,1,correct,1247
33,2,yes,feature_memory,6,N/A,blocked,6,correct,1031
33,2,yes,feature_memory,7,N/A,intermixed,1,correct,1023
33,2,yes,feature_memory,8,N/A,blocked,6,correct,1183
33,2,yes,feature_memory,9,N/A,intermixed,2,correct,951
33,2,yes,feature_memory,10,N/A,intermixed,3,correct,1103
33,2,yes,feature_memory,11,N/A,blocked,5,correct,1767
33,2,yes,feature_memory,12,N/A,blocked,4,correct,983
33,2,yes,feature_generalization,1,N/A,intermixed,1,incorrect,2563
33,2,yes,feature_generalization,2,N/A,blocked,6,correct,2159
33,2,yes,feature_generalization,3,N/A,intermixed,2,correct,1951
33,2,yes,feature_generalization,4,N/A,intermixed,1,incorrect,1719
33,2,yes,feature_generalization,5,N/A,intermixed,2,correct,1967
33,2,yes,feature_generalization,6,N/A,blocked,6,correct,2199
33,2,yes,feature_generalization,7,N/A,blocked,5,incorrect,2630
33,2,yes,feature_generalization,8,N/A,intermixed,3,correct,1846
33,2,yes,feature_generalization,9,N/A,blocked,4,incorrect,2471
33,2,yes,feature_generalization,10,N/A,intermixed,3,correct,1535
33,2,yes,feature_generalization,11,N/A,blocked,4,correct,2041
33,2,yes,feature_generalization,12,N/A,blocked,5,correct,2118
33,2,yes,explicit_direct,1,BC,intermixed,3,correct,1658
33,2,yes,explicit_direct,2,BC,blocked,6,correct,2262
33,2,yes,explicit_direct,3,AB,intermixed,3,correct,1254
33,2,yes,explicit_direct,4,BC,blocked,6,correct,2774
33,2,yes,explicit_direct,5,AB,blocked,4,correct,1823
33,2,yes,explicit_direct,6,AB,intermixed,3,correct,1060
33,2,yes,explicit_direct,7,BC,blocked,5,correct,1454
33,2,yes,explicit_direct,8,BC,intermixed,3,correct,1632
33,2,yes,explicit_direct,9,AB,blocked,4,correct,1423
33,2,yes,explicit_direct,10,AB,blocked,5,correct,1542
33,2,yes,explicit_direct,11,BC,blocked,4,correct,1327
33,2,yes,explicit_direct,12,BC,intermixed,1,correct,1312
33,2,yes,explicit_direct,13,BC,intermixed,2,correct,1295
33,2,yes,explicit_direct,14,AB,blocked,5,correct,1135
33,2,yes,explicit_direct,15,BC,blocked,4,correct,1079
33,2,yes,explicit_direct,16,AB,blocked,6,correct,1462
33,2,yes,explicit_direct,17,AB,intermixed,1,correct,1382
33,2,yes,explicit_direct,18,AB,blocked,6,correct,1367
33,2,yes,explicit_direct,19,BC,intermixed,1,correct,1047
33,2,yes,explicit_direct,20,AB,intermixed,2,correct,1201
33,2,yes,explicit_direct,21,BC,blocked,5,correct,1135
33,2,yes,explicit_direct,22,AB,intermixed,2,correct,928
33,2,yes,explicit_direct,23,AB,intermixed,1,correct,983
33,2,yes,explicit_direct,24,BC,intermixed,2,correct,1398
34,2,yes,feature_memory,1,N/A,blocked,4,N/A,N/A
34,2,yes,feature_memory,2,N/A,intermixed,2,correct,1718
34,2,yes,feature_memory,3,N/A,intermixed,3,correct,1286
34,2,yes,feature_memory,4,N/A,blocked,6,incorrect,1509
34,2,yes,feature_memory,5,N/A,blocked,5,correct,1407
34,2,yes,feature_memory,6,N/A,intermixed,2,correct,1709
34,2,yes,feature_memory,7,N/A,intermixed,3,correct,1869
34,2,yes,feature_memory,8,N/A,blocked,6,incorrect,1061
34,2,yes,feature_memory,9,N/A,blocked,5,incorrect,1389
34,2,yes,feature_memory,10,N/A,intermixed,1,correct,1277
34,2,yes,feature_memory,11,N/A,blocked,4,correct,3509
34,2,yes,feature_memory,12,N/A,intermixed,1,correct,1725
34,2,yes,feature_generalization,1,N/A,intermixed,2,correct,1774
34,2,yes,feature_generalization,2,N/A,blocked,4,N/A,N/A
34,2,yes,feature_generalization,3,N/A,intermixed,1,incorrect,1095
34,2,yes,feature_generalization,4,N/A,intermixed,3,correct,2142
34,2,yes,feature_generalization,5,N/A,intermixed,2,correct,956
34,2,yes,feature_generalization,6,N/A,blocked,6,incorrect,2078
34,2,yes,feature_generalization,7,N/A,blocked,5,incorrect,2502
34,2,yes,feature_generalization,8,N/A,intermixed,1,correct,1206
34,2,yes,feature_generalization,9,N/A,blocked,4,correct,1461
34,2,yes,feature_generalization,10,N/A,blocked,6,correct,1070
34,2,yes,feature_generalization,11,N/A,blocked,5,correct,1823
34,2,yes,feature_generalization,12,N/A,intermixed,3,incorrect,1167
34,2,yes,explicit_direct,1,AB,blocked,6,correct,2701
34,2,yes,explicit_direct,2,AB,intermixed,1,incorrect,1293
34,2,yes,explicit_direct,3,AB,intermixed,3,incorrect,2494
34,2,yes,explicit_direct,4,BC,blocked,6,correct,1542
34,2,yes,explicit_direct,5,AB,intermixed,2,correct,1358
34,2,yes,explicit_direct,6,AB,blocked,4,correct,1919
34,2,yes,explicit_direct,7,BC,intermixed,3,correct,2447
34,2,yes,explicit_direct,8,AB,intermixed,1,correct,2030
34,2,yes,explicit_direct,9,AB,intermixed,2,correct,2670
34,2,yes,explicit_direct,10,AB,blocked,5,correct,2230
34,2,yes,explicit_direct,11,BC,blocked,4,correct,3047
34,2,yes,explicit_direct,12,AB,blocked,5,correct,2277
34,2,yes,explicit_direct,13,BC,intermixed,1,correct,2821
34,2,yes,explicit_direct,14,BC,blocked,4,correct,1711
34,2,yes,explicit_direct,15,BC,intermixed,2,correct,2470
34,2,yes,explicit_direct,16,AB,intermixed,3,correct,2592
34,2,yes,explicit_direct,17,AB,blocked,4,correct,1959
34,2,yes,explicit_direct,18,BC,intermixed,2,correct,2030
34,2,yes,explicit_direct,19,BC,blocked,5,correct,1847
34,2,yes,explicit_direct,20,BC,blocked,6,incorrect,2637
34,2,yes,explicit_direct,21,BC,intermixed,1,incorrect,4205
34,2,yes,explicit_direct,22,BC,blocked,5,correct,2486
34,2,yes,explicit_direct,23,AB,blocked,6,correct,1310
34,2,yes,explicit_direct,24,BC,intermixed,3,correct,1158
35,2,yes,feature_memory,1,N/A,blocked,4,correct,3161
35,2,yes,feature_memory,2,N/A,intermixed,1,correct,1831
35,2,yes,feature_memory,3,N/A,blocked,6,correct,2719
35,2,yes,feature_memory,4,N/A,blocked,5,correct,2272
35,2,yes,feature_memory,5,N/A,intermixed,3,correct,2415
35,2,yes,feature_memory,6,N/A,blocked,4,correct,2599
35,2,yes,feature_memory,7,N/A,blocked,6,correct,2751
35,2,yes,feature_memory,8,N/A,intermixed,2,correct,2393
35,2,yes,feature_memory,9,N/A,blocked,5,correct,1529
35,2,yes,feature_memory,10,N/A,intermixed,2,correct,2118
35,2,yes,feature_memory,11,N/A,intermixed,3,correct,1816
35,2,yes,feature_memory,12,N/A,intermixed,1,correct,1666
35,2,yes,feature_generalization,1,N/A,intermixed,1,N/A,N/A
35,2,yes,feature_generalization,2,N/A,blocked,4,correct,2017
35,2,yes,feature_generalization,3,N/A,blocked,6,incorrect,3841
35,2,yes,feature_generalization,4,N/A,intermixed,1,incorrect,1657
35,2,yes,feature_generalization,5,N/A,intermixed,3,incorrect,1498
35,2,yes,feature_generalization,6,N/A,blocked,6,incorrect,1656
35,2,yes,feature_generalization,7,N/A,blocked,4,correct,1298
35,2,yes,feature_generalization,8,N/A,intermixed,2,incorrect,1993
35,2,yes,feature_generalization,9,N/A,intermixed,3,incorrect,1407
35,2,yes,feature_generalization,10,N/A,blocked,5,incorrect,1954
35,2,yes,feature_generalization,11,N/A,intermixed,2,correct,3000
35,2,yes,feature_generalization,12,N/A,blocked,5,incorrect,1435
35,2,yes,explicit_direct,1,AB,blocked,5,correct,2679
35,2,yes,explicit_direct,2,BC,blocked,6,correct,5083
35,2,yes,explicit_direct,3,AB,blocked,5,correct,1594
35,2,yes,explicit_direct,4,AB,intermixed,3,correct,1775
35,2,yes,explicit_direct,5,AB,blocked,6,correct,1737
35,2,yes,explicit_direct,6,AB,blocked,4,correct,2370
35,2,yes,explicit_direct,7,BC,intermixed,2,correct,1747
35,2,yes,explicit_direct,8,BC,blocked,4,correct,1762
35,2,yes,explicit_direct,9,BC,intermixed,3,incorrect,2940
35,2,yes,explicit_direct,10,BC,blocked,5,incorrect,1660
35,2,yes,explicit_direct,11,AB,intermixed,1,correct,1276
35,2,yes,explicit_direct,12,AB,intermixed,3,correct,1540
35,2,yes,explicit_direct,13,AB,blocked,4,correct,1156
35,2,yes,explicit_direct,14,BC,blocked,6,incorrect,1488
35,2,yes,explicit_direct,15,AB,intermixed,2,correct,1618
35,2,yes,explicit_direct,16,BC,intermixed,3,correct,1514
35,2,yes,explicit_direct,17,AB,blocked,6,correct,1388
35,2,yes,explicit_direct,18,BC,blocked,5,correct,2024
35,2,yes,explicit_direct,19,BC,intermixed,2,correct,1395
35,2,yes,explicit_direct,20,BC,intermixed,1,correct,2453
35,2,yes,explicit_direct,21,BC,blocked,4,incorrect,1402
35,2,yes,explicit_direct,22,BC,intermixed,1,incorrect,1644
35,2,yes,explicit_direct,23,AB,intermixed,2,correct,1426
35,2,yes,explicit_direct,24,AB,intermixed,1,correct,1329
36,2,yes,feature_memory,1,N/A,intermixed,1,correct,2372
36,2,yes,feature_memory,2,N/A,intermixed,2,correct,1668
36,2,yes,feature_memory,3,N/A,blocked,4,correct,1668
36,2,yes,feature_memory,4,N/A,intermixed,3,correct,1608
36,2,yes,feature_memory,5,N/A,blocked,4,correct,1681
36,2,yes,feature_memory,6,N/A,blocked,6,correct,3350
36,2,yes,feature_memory,7,N/A,blocked,5,correct,1527
36,2,yes,feature_memory,8,N/A,intermixed,2,correct,1423
36,2,yes,feature_memory,9,N/A,intermixed,3,correct,1461
36,2,yes,feature_memory,10,N/A,blocked,6,correct,1349
36,2,yes,feature_memory,11,N/A,intermixed,1,correct,1349
36,2,yes,feature_memory,12,N/A,blocked,5,correct,1356
36,2,yes,feature_generalization,1,N/A,blocked,4,N/A,N/A
36,2,yes,feature_generalization,2,N/A,blocked,5,correct,1787
36,2,yes,feature_generalization,3,N/A,intermixed,1,correct,1691
36,2,yes,feature_generalization,4,N/A,blocked,6,incorrect,1428
36,2,yes,feature_generalization,5,N/A,blocked,5,correct,1625
36,2,yes,feature_generalization,6,N/A,blocked,6,incorrect,2875
36,2,yes,feature_generalization,7,N/A,intermixed,2,correct,2022
36,2,yes,feature_generalization,8,N/A,intermixed,3,correct,1357
36,2,yes,feature_generalization,9,N/A,blocked,4,correct,2230
36,2,yes,feature_generalization,10,N/A,intermixed,2,incorrect,2053
36,2,yes,feature_generalization,11,N/A,intermixed,3,correct,2062
36,2,yes,feature_generalization,12,N/A,intermixed,1,incorrect,1831
36,2,yes,explicit_direct,1,AB,blocked,6,correct,1402
36,2,yes,explicit_direct,2,BC,intermixed,2,incorrect,1553
36,2,yes,explicit_direct,3,BC,blocked,5,correct,2352
36,2,yes,explicit_direct,4,BC,blocked,6,incorrect,2041
36,2,yes,explicit_direct,5,BC,intermixed,2,correct,2008
36,2,yes,explicit_direct,6,BC,intermixed,3,incorrect,1866
36,2,yes,explicit_direct,7,BC,blocked,4,correct,2569
36,2,yes,explicit_direct,8,BC,intermixed,1,correct,3933
36,2,yes,explicit_direct,9,AB,intermixed,3,correct,1621
36,2,yes,explicit_direct,10,AB,intermixed,2,incorrect,4862
36,2,yes,explicit_direct,11,AB,intermixed,1,correct,3693
36,2,yes,explicit_direct,12,AB,blocked,4,incorrect,6901
36,2,yes,explicit_direct,13,AB,blocked,5,correct,1985
36,2,yes,explicit_direct,14,BC,intermixed,3,correct,4151
36,2,yes,explicit_direct,15,BC,intermixed,1,correct,2629
36,2,yes,explicit_direct,16,AB,blocked,6,correct,1677
36,2,yes,explicit_direct,17,BC,blocked,4,correct,1864
36,2,yes,explicit_direct,18,AB,intermixed,2,correct,1813
36,2,yes,explicit_direct,19,AB,blocked,5,correct,2403
36,2,yes,explicit_direct,20,AB,blocked,4,incorrect,3500
36,2,yes,explicit_direct,21,AB,intermixed,1,incorrect,1854
36,2,yes,explicit_direct,22,BC,blocked,5,incorrect,2998
36,2,yes,explicit_direct,23,AB,intermixed,3,correct,2614
36,2,yes,explicit_direct,24,BC,blocked,6,correct,6269
37,2,yes,feature_memory,1,N/A,blocked,5,correct,1420
37,2,yes,feature_memory,2,N/A,blocked,4,correct,1145
37,2,yes,feature_memory,3,N/A,intermixed,1,correct,2317
37,2,yes,feature_memory,4,N/A,intermixed,2,correct,1526
37,2,yes,feature_memory,5,N/A,intermixed,1,correct,1262
37,2,yes,feature_memory,6,N/A,blocked,4,correct,1151
37,2,yes,feature_memory,7,N/A,blocked,5,correct,1037
37,2,yes,feature_memory,8,N/A,blocked,6,correct,1504
37,2,yes,feature_memory,9,N/A,intermixed,3,correct,2982
37,2,yes,feature_memory,10,N/A,blocked,6,correct,1267
37,2,yes,feature_memory,11,N/A,intermixed,3,correct,1294
37,2,yes,feature_memory,12,N/A,intermixed,2,correct,1334
37,2,yes,feature_generalization,1,N/A,blocked,5,incorrect,3588
37,2,yes,feature_generalization,2,N/A,intermixed,1,correct,1407
37,2,yes,feature_generalization,3,N/A,intermixed,2,incorrect,1887
37,2,yes,feature_generalization,4,N/A,intermixed,1,correct,1671
37,2,yes,feature_generalization,5,N/A,intermixed,3,incorrect,2957
37,2,yes,feature_generalization,6,N/A,blocked,4,correct,1583
37,2,yes,feature_generalization,7,N/A,intermixed,2,incorrect,1589
37,2,yes,feature_generalization,8,N/A,intermixed,3,incorrect,1695
37,2,yes,feature_generalization,9,N/A,blocked,4,incorrect,1583
37,2,yes,feature_generalization,10,N/A,blocked,6,incorrect,1686
37,2,yes,feature_generalization,11,N/A,blocked,5,N/A,N/A
37,2,yes,feature_generalization,12,N/A,blocked,6,correct,1189
37,2,yes,explicit_direct,1,AB,blocked,6,correct,5749
37,2,yes,explicit_direct,2,AB,blocked,5,incorrect,1655
37,2,yes,explicit_direct,3,BC,blocked,4,incorrect,1416
37,2,yes,explicit_direct,4,AB,intermixed,2,correct,4599
37,2,yes,explicit_direct,5,BC,intermixed,1,correct,2453
37,2,yes,explicit_direct,6,BC,blocked,4,correct,1847
37,2,yes,explicit_direct,7,AB,intermixed,2,incorrect,1857
37,2,yes,explicit_direct,8,BC,intermixed,3,correct,2013
37,2,yes,explicit_direct,9,AB,blocked,6,incorrect,1871
37,2,yes,explicit_direct,10,AB,intermixed,3,correct,1485
37,2,yes,explicit_direct,11,BC,blocked,6,incorrect,1382
37,2,yes,explicit_direct,12,AB,intermixed,1,correct,1278
37,2,yes,explicit_direct,13,BC,intermixed,2,incorrect,2239
