subject,experiment,task_type,trial_number,target_pair_type,target_pair_condition,target_triad_index,response_correct,response_time
1,3b,speeded_recognition,1,AB,blocked,1,correct,1018
1,3b,speeded_recognition,2,AC,intermixed,6,correct,1111
1,3b,speeded_recognition,3,foil,blocked,N/A,incorrect,1072
1,3b,speeded_recognition,4,BC,intermixed,5,correct,1198
1,3b,speeded_recognition,5,foil,blocked,N/A,correct,874
1,3b,speeded_recognition,6,foil,intermixed,N/A,incorrect,810
1,3b,speeded_recognition,7,AC,blocked,2,correct,665
1,3b,speeded_recognition,8,foil,intermixed,N/A,correct,913
1,3b,speeded_recognition,9,BC,intermixed,4,incorrect,1144
1,3b,speeded_recognition,10,foil,blocked,N/A,incorrect,614
1,3b,speeded_recognition,11,AC,intermixed,5,incorrect,1056
1,3b,speeded_recognition,12,AB,blocked,3,correct,1343
1,3b,speeded_recognition,13,AC,intermixed,4,incorrect,1244
1,3b,speeded_recognition,14,BC,blocked,2,correct,1596
1,3b,speeded_recognition,15,AC,intermixed,6,correct,831
1,3b,speeded_recognition,16,AC,blocked,1,correct,864
1,3b,speeded_recognition,17,AB,intermixed,5,correct,1072
1,3b,speeded_recognition,18,BC,blocked,1,correct,387
1,3b,speeded_recognition,19,foil,blocked,N/A,incorrect,810
1,3b,speeded_recognition,20,foil,blocked,N/A,incorrect,1172
1,3b,speeded_recognition,21,BC,intermixed,4,N/A,N/A
1,3b,speeded_recognition,22,BC,blocked,1,correct,870
1,3b,speeded_recognition,23,foil,intermixed,N/A,incorrect,519
1,3b,speeded_recognition,24,AB,blocked,3,correct,515
1,3b,speeded_recognition,25,AC,intermixed,4,N/A,N/A
1,3b,speeded_recognition,26,AC,blocked,2,incorrect,638
1,3b,speeded_recognition,27,BC,intermixed,6,correct,1385
1,3b,speeded_recognition,28,BC,blocked,2,correct,530
1,3b,speeded_recognition,29,AB,intermixed,5,incorrect,1773
1,3b,speeded_recognition,30,foil,intermixed,N/A,incorrect,1427
1,3b,speeded_recognition,31,AC,blocked,3,incorrect,721
1,3b,speeded_recognition,32,AB,intermixed,6,correct,579
1,3b,speeded_recognition,33,AC,blocked,3,incorrect,858
1,3b,speeded_recognition,34,AB,intermixed,4,incorrect,460
1,3b,speeded_recognition,35,AB,blocked,2,correct,790
1,3b,speeded_recognition,36,foil,intermixed,N/A,incorrect,901
1,3b,speeded_recognition,37,AB,intermixed,6,correct,928
1,3b,speeded_recognition,38,AC,blocked,1,incorrect,606
1,3b,speeded_recognition,39,AB,intermixed,4,incorrect,841
1,3b,speeded_recognition,40,foil,blocked,N/A,correct,919
1,3b,speeded_recognition,41,BC,blocked,3,correct,615
1,3b,speeded_recognition,42,AC,intermixed,5,correct,890
1,3b,speeded_recognition,43,AB,blocked,1,correct,644
1,3b,speeded_recognition,44,BC,intermixed,6,correct,682
1,3b,speeded_recognition,45,BC,blocked,3,incorrect,757
1,3b,speeded_recognition,46,foil,intermixed,N/A,incorrect,563
1,3b,speeded_recognition,47,BC,intermixed,5,incorrect,721
1,3b,speeded_recognition,48,AB,blocked,2,correct,413
1,3b,explicit_inference,1,AC,blocked,2,correct,7862
1,3b,explicit_inference,2,AC,blocked,3,correct,4861
1,3b,explicit_inference,3,AC,blocked,1,incorrect,2534
1,3b,explicit_inference,4,AC,intermixed,6,correct,992
1,3b,explicit_inference,5,AC,intermixed,5,correct,2716
1,3b,explicit_inference,6,AC,blocked,1,incorrect,1742
1,3b,explicit_inference,7,AC,intermixed,5,incorrect,1766
1,3b,explicit_inference,8,AC,intermixed,4,incorrect,1853
1,3b,explicit_inference,9,AC,blocked,3,correct,3453
1,3b,explicit_inference,10,AC,intermixed,6,incorrect,2310
1,3b,explicit_inference,11,AC,blocked,2,correct,1349
1,3b,explicit_inference,12,AC,intermixed,4,incorrect,2021
1,3b,explicit_direct,1,BC,blocked,1,incorrect,2052
1,3b,explicit_direct,2,BC,intermixed,6,incorrect,1302
1,3b,explicit_direct,3,AB,intermixed,5,incorrect,1206
1,3b,explicit_direct,4,BC,blocked,2,incorrect,1647
1,3b,explicit_direct,5,AB,intermixed,6,incorrect,2637
1,3b,explicit_direct,6,BC,intermixed,5,correct,1830
1,3b,explicit_direct,7,AB,intermixed,6,correct,1285
1,3b,explicit_direct,8,AB,intermixed,5,correct,2070
1,3b,explicit_direct,9,AB,blocked,1,incorrect,1758
1,3b,explicit_direct,10,BC,intermixed,4,incorrect,1308
1,3b,explicit_direct,11,BC,intermixed,6,incorrect,991
1,3b,explicit_direct,12,BC,intermixed,5,correct,1615
1,3b,explicit_direct,13,BC,blocked,1,incorrect,1597
1,3b,explicit_direct,14,AB,intermixed,4,incorrect,1014
1,3b,explicit_direct,15,BC,blocked,2,correct,911
1,3b,explicit_direct,16,AB,intermixed,4,incorrect,3302
1,3b,explicit_direct,17,AB,blocked,2,correct,1029
1,3b,explicit_direct,18,AB,blocked,3,incorrect,900
1,3b,explicit_direct,19,BC,intermixed,4,incorrect,1700
1,3b,explicit_direct,20,AB,blocked,3,incorrect,885
1,3b,explicit_direct,21,AB,blocked,2,correct,1462
1,3b,explicit_direct,22,BC,blocked,3,correct,853
1,3b,explicit_direct,23,AB,blocked,1,correct,1183
1,3b,explicit_direct,24,BC,blocked,3,correct,1021
2,3b,speeded_recognition,1,BC,intermixed,6,correct,1184
2,3b,speeded_recognition,2,AB,blocked,1,incorrect,1613
2,3b,speeded_recognition,3,AB,intermixed,4,correct,1636
2,3b,speeded_recognition,4,foil,intermixed,N/A,incorrect,1178
2,3b,speeded_recognition,5,AB,blocked,2,correct,1296
2,3b,speeded_recognition,6,AB,intermixed,5,incorrect,1397
2,3b,speeded_recognition,7,AC,blocked,3,correct,1518
2,3b,speeded_recognition,8,AC,intermixed,4,incorrect,1347
2,3b,speeded_recognition,9,AC,blocked,1,incorrect,1441
2,3b,speeded_recognition,10,AC,intermixed,5,incorrect,1202
2,3b,speeded_recognition,11,foil,blocked,N/A,correct,1131
2,3b,speeded_recognition,12,BC,blocked,3,correct,1345
2,3b,speeded_recognition,13,foil,intermixed,N/A,correct,1293
2,3b,speeded_recognition,14,AB,intermixed,5,correct,1245
2,3b,speeded_recognition,15,foil,blocked,N/A,incorrect,1154
2,3b,speeded_recognition,16,BC,blocked,2,correct,1137
2,3b,speeded_recognition,17,foil,blocked,N/A,incorrect,1125
2,3b,speeded_recognition,18,AB,intermixed,4,correct,1168
2,3b,speeded_recognition,19,foil,blocked,N/A,correct,914
2,3b,speeded_recognition,20,foil,intermixed,N/A,incorrect,1222
2,3b,speeded_recognition,21,BC,blocked,1,correct,1154
2,3b,speeded_recognition,22,BC,intermixed,4,correct,929
2,3b,speeded_recognition,23,BC,blocked,2,correct,1077
2,3b,speeded_recognition,24,AC,intermixed,6,correct,1503
2,3b,speeded_recognition,25,BC,blocked,1,correct,1065
2,3b,speeded_recognition,26,AB,intermixed,6,correct,1236
2,3b,speeded_recognition,27,AB,blocked,3,correct,1037
2,3b,speeded_recognition,28,BC,intermixed,6,incorrect,1298
2,3b,speeded_recognition,29,BC,blocked,3,correct,1241
2,3b,speeded_recognition,30,BC,intermixed,5,correct,1011
2,3b,speeded_recognition,31,AB,blocked,2,incorrect,1257
2,3b,speeded_recognition,32,AC,intermixed,6,incorrect,1502
2,3b,speeded_recognition,33,AC,blocked,1,incorrect,1084
2,3b,speeded_recognition,34,foil,intermixed,N/A,incorrect,904
2,3b,speeded_recognition,35,BC,intermixed,4,correct,740
2,3b,speeded_recognition,36,foil,intermixed,N/A,incorrect,1151
2,3b,speeded_recognition,37,foil,blocked,N/A,correct,1259
2,3b,speeded_recognition,38,AB,blocked,3,correct,977
2,3b,speeded_recognition,39,AB,intermixed,6,correct,1070
2,3b,speeded_recognition,40,foil,blocked,N/A,correct,1496
2,3b,speeded_recognition,41,AC,blocked,2,correct,1379
2,3b,speeded_recognition,42,BC,intermixed,5,correct,904
2,3b,speeded_recognition,43,AB,blocked,1,correct,1575
2,3b,speeded_recognition,44,AC,intermixed,5,incorrect,1464
2,3b,speeded_recognition,45,foil,intermixed,N/A,incorrect,1462
2,3b,speeded_recognition,46,AC,blocked,3,correct,1132
2,3b,speeded_recognition,47,AC,intermixed,4,correct,1255
2,3b,speeded_recognition,48,AC,blocked,2,correct,1122
2,3b,explicit_inference,1,AC,blocked,1,correct,4848
2,3b,explicit_inference,2,AC,intermixed,5,N/A,N/A
2,3b,explicit_inference,3,AC,blocked,2,correct,3805
2,3b,explicit_inference,4,AC,intermixed,6,incorrect,2599
2,3b,explicit_inference,5,AC,blocked,3,incorrect,2880
2,3b,explicit_inference,6,AC,intermixed,4,correct,2611
2,3b,explicit_inference,7,AC,intermixed,6,correct,4009
2,3b,explicit_inference,8,AC,intermixed,5,correct,4125
2,3b,explicit_inference,9,AC,intermixed,4,correct,2575
2,3b,explicit_inference,10,AC,blocked,1,correct,2201
2,3b,explicit_inference,11,AC,blocked,2,correct,4284
2,3b,explicit_inference,12,AC,blocked,3,incorrect,3509
2,3b,explicit_direct,1,BC,intermixed,6,correct,4010
2,3b,explicit_direct,2,AB,intermixed,5,correct,2734
2,3b,explicit_direct,3,AB,intermixed,4,incorrect,3504
2,3b,explicit_direct,4,AB,blocked,2,correct,2772
2,3b,explicit_direct,5,AB,blocked,1,correct,2625
2,3b,explicit_direct,6,BC,intermixed,5,correct,2350
2,3b,explicit_direct,7,BC,blocked,3,correct,3225
2,3b,explicit_direct,8,BC,blocked,2,incorrect,2436
2,3b,explicit_direct,9,AB,intermixed,6,incorrect,2002
2,3b,explicit_direct,10,BC,intermixed,5,correct,1900
2,3b,explicit_direct,11,BC,blocked,1,correct,2022
2,3b,explicit_direct,12,BC,blocked,3,correct,3487
2,3b,explicit_direct,13,BC,blocked,2,correct,2671
2,3b,explicit_direct,14,BC,intermixed,4,correct,1514
2,3b,explicit_direct,15,AB,intermixed,6,incorrect,2073
2,3b,explicit_direct,16,AB,blocked,1,correct,1945
2,3b,explicit_direct,17,BC,intermixed,4,correct,1406
2,3b,explicit_direct,18,AB,blocked,3,correct,1764
2,3b,explicit_direct,19,AB,intermixed,4,correct,2759
2,3b,explicit_direct,20,BC,intermixed,6,correct,1923
2,3b,explicit_direct,21,AB,intermixed,5,incorrect,4525
2,3b,explicit_direct,22,AB,blocked,2,correct,1811
2,3b,explicit_direct,23,BC,blocked,1,correct,1546
2,3b,explicit_direct,24,AB,blocked,3,correct,1499
3,3b,speeded_recognition,1,BC,intermixed,5,incorrect,1509
3,3b,speeded_recognition,2,foil,blocked,N/A,correct,1459
3,3b,speeded_recognition,3,foil,blocked,N/A,incorrect,2145
3,3b,speeded_recognition,4,BC,intermixed,4,correct,1426
3,3b,speeded_recognition,5,foil,blocked,N/A,correct,1349
3,3b,speeded_recognition,6,AB,blocked,1,correct,1737
3,3b,speeded_recognition,7,foil,intermixed,N/A,incorrect,1707
3,3b,speeded_recognition,8,BC,intermixed,6,correct,1210
3,3b,speeded_recognition,9,BC,blocked,1,correct,1806
3,3b,speeded_recognition,10,AB,intermixed,4,correct,1089
3,3b,speeded_recognition,11,AC,blocked,3,correct,1826
3,3b,speeded_recognition,12,foil,intermixed,N/A,incorrect,1289
3,3b,speeded_recognition,13,AC,blocked,1,incorrect,1040
3,3b,speeded_recognition,14,AB,intermixed,4,incorrect,1658
3,3b,speeded_recognition,15,AB,blocked,3,correct,1149
3,3b,speeded_recognition,16,foil,blocked,N/A,correct,1747
3,3b,speeded_recognition,17,AC,blocked,3,incorrect,890
3,3b,speeded_recognition,18,foil,intermixed,N/A,incorrect,781
3,3b,speeded_recognition,19,AB,blocked,2,correct,860
3,3b,speeded_recognition,20,AB,intermixed,6,correct,1060
3,3b,speeded_recognition,21,BC,blocked,1,correct,562
3,3b,speeded_recognition,22,AC,intermixed,4,correct,363
3,3b,speeded_recognition,23,AB,blocked,1,correct,435
3,3b,speeded_recognition,24,AB,intermixed,5,correct,1180
3,3b,speeded_recognition,25,foil,intermixed,N/A,incorrect,1071
3,3b,speeded_recognition,26,BC,blocked,3,incorrect,393
3,3b,speeded_recognition,27,AC,intermixed,5,incorrect,632
3,3b,speeded_recognition,28,BC,blocked,2,incorrect,1230
3,3b,speeded_recognition,29,AB,intermixed,6,correct,742
3,3b,speeded_recognition,30,AC,blocked,2,incorrect,3282
3,3b,speeded_recognition,31,AC,intermixed,4,incorrect,1150
3,3b,speeded_recognition,32,AB,blocked,3,correct,922
3,3b,speeded_recognition,33,AC,intermixed,5,incorrect,862
3,3b,speeded_recognition,34,AB,blocked,2,correct,632
3,3b,speeded_recognition,35,BC,intermixed,4,correct,801
3,3b,speeded_recognition,36,foil,intermixed,N/A,correct,1509
3,3b,speeded_recognition,37,AC,blocked,2,incorrect,681
3,3b,speeded_recognition,38,AC,intermixed,6,correct,1271
3,3b,speeded_recognition,39,BC,blocked,2,correct,543
3,3b,speeded_recognition,40,AB,intermixed,5,correct,890
3,3b,speeded_recognition,41,foil,blocked,N/A,correct,1160
3,3b,speeded_recognition,42,BC,intermixed,6,correct,672
3,3b,speeded_recognition,43,BC,blocked,3,incorrect,1330
3,3b,speeded_recognition,44,BC,intermixed,5,correct,981
3,3b,speeded_recognition,45,foil,intermixed,N/A,incorrect,831
3,3b,speeded_recognition,46,AC,blocked,1,correct,1160
3,3b,speeded_recognition,47,foil,blocked,N/A,correct,1320
3,3b,speeded_recognition,48,AC,intermixed,6,incorrect,921
3,3b,explicit_inference,1,AC,blocked,2,incorrect,3908
3,3b,explicit_inference,2,AC,blocked,3,incorrect,1278
3,3b,explicit_inference,3,AC,intermixed,5,correct,1071
3,3b,explicit_inference,4,AC,intermixed,4,correct,1173
3,3b,explicit_inference,5,AC,blocked,1,incorrect,941
3,3b,explicit_inference,6,AC,blocked,2,incorrect,1005
3,3b,explicit_inference,7,AC,intermixed,6,incorrect,774
3,3b,explicit_inference,8,AC,blocked,1,incorrect,917
3,3b,explicit_inference,9,AC,blocked,3,incorrect,1357
3,3b,explicit_inference,10,AC,intermixed,5,correct,1030
3,3b,explicit_inference,11,AC,intermixed,4,correct,911
3,3b,explicit_inference,12,AC,intermixed,6,correct,1613
3,3b,explicit_direct,1,BC,blocked,3,correct,1100
3,3b,explicit_direct,2,AB,intermixed,5,incorrect,997
3,3b,explicit_direct,3,AB,blocked,1,correct,903
3,3b,explicit_direct,4,BC,blocked,2,correct,821
3,3b,explicit_direct,5,BC,blocked,3,correct,1333
3,3b,explicit_direct,6,BC,intermixed,4,correct,1269
3,3b,explicit_direct,7,AB,blocked,2,correct,1069
3,3b,explicit_direct,8,AB,blocked,3,incorrect,1637
3,3b,explicit_direct,9,AB,intermixed,6,incorrect,1125
3,3b,explicit_direct,10,AB,intermixed,4,correct,1294
3,3b,explicit_direct,11,BC,intermixed,5,incorrect,1096
3,3b,explicit_direct,12,BC,blocked,1,incorrect,973
3,3b,explicit_direct,13,AB,intermixed,6,incorrect,1655
3,3b,explicit_direct,14,AB,intermixed,5,correct,1302
3,3b,explicit_direct,15,AB,blocked,2,correct,1270
3,3b,explicit_direct,16,AB,intermixed,4,correct,1117
3,3b,explicit_direct,17,AB,blocked,3,correct,1333
3,3b,explicit_direct,18,BC,intermixed,6,correct,1270
3,3b,explicit_direct,19,BC,blocked,2,incorrect,1022
3,3b,explicit_direct,20,BC,intermixed,6,correct,1790
3,3b,explicit_direct,21,AB,blocked,1,correct,933
3,3b,explicit_direct,22,BC,intermixed,4,incorrect,1181
3,3b,explicit_direct,23,BC,blocked,1,correct,1165
3,3b,explicit_direct,24,BC,intermixed,5,incorrect,1165
4,3b,speeded_recognition,1,BC,blocked,2,incorrect,1347
4,3b,speeded_recognition,2,foil,intermixed,N/A,incorrect,2912
4,3b,speeded_recognition,3,AC,intermixed,4,correct,1732
4,3b,speeded_recognition,4,foil,blocked,N/A,incorrect,2045
4,3b,speeded_recognition,5,AC,blocked,1,correct,1310
4,3b,speeded_recognition,6,foil,intermixed,N/A,incorrect,1624
4,3b,speeded_recognition,7,BC,intermixed,5,correct,2075
4,3b,speeded_recognition,8,BC,blocked,1,correct,1694
4,3b,speeded_recognition,9,AB,intermixed,5,correct,1630
4,3b,speeded_recognition,10,AB,blocked,3,correct,1556
4,3b,speeded_recognition,11,AB,intermixed,6,correct,1761
4,3b,speeded_recognition,12,BC,blocked,3,correct,1623
4,3b,speeded_recognition,13,BC,intermixed,4,correct,1225
4,3b,speeded_recognition,14,AB,blocked,3,correct,1196
4,3b,speeded_recognition,15,AC,intermixed,4,incorrect,1027
4,3b,speeded_recognition,16,foil,intermixed,N/A,correct,1954
4,3b,speeded_recognition,17,AB,blocked,1,correct,1784
4,3b,speeded_recognition,18,BC,intermixed,4,correct,1240
4,3b,speeded_recognition,19,foil,blocked,N/A,correct,1587
4,3b,speeded_recognition,20,AC,intermixed,5,incorrect,1622
4,3b,speeded_recognition,21,AB,blocked,2,incorrect,1057
4,3b,speeded_recognition,22,foil,intermixed,N/A,correct,1551
4,3b,speeded_recognition,23,AC,blocked,3,incorrect,1118
4,3b,speeded_recognition,24,foil,intermixed,N/A,incorrect,1117
4,3b,speeded_recognition,25,AB,intermixed,4,incorrect,1287
4,3b,speeded_recognition,26,AC,blocked,2,correct,1480
4,3b,speeded_recognition,27,AC,intermixed,5,correct,1493
4,3b,speeded_recognition,28,BC,blocked,1,correct,1163
4,3b,speeded_recognition,29,AC,intermixed,6,incorrect,1213
4,3b,speeded_recognition,30,AC,blocked,3,incorrect,1711
4,3b,speeded_recognition,31,BC,intermixed,5,correct,1226
4,3b,speeded_recognition,32,AC,blocked,2,correct,1790
4,3b,speeded_recognition,33,foil,intermixed,N/A,incorrect,1354
4,3b,speeded_recognition,34,AC,blocked,1,incorrect,1150
4,3b,speeded_recognition,35,AB,intermixed,5,correct,1044
4,3b,speeded_recognition,36,foil,blocked,N/A,incorrect,1053
4,3b,speeded_recognition,37,AB,blocked,1,correct,1074
4,3b,speeded_recognition,38,AB,intermixed,6,correct,1946
4,3b,speeded_recognition,39,AB,blocked,2,incorrect,2073
4,3b,speeded_recognition,40,foil,blocked,N/A,correct,1617
4,3b,speeded_recognition,41,BC,intermixed,6,correct,1075
4,3b,speeded_recognition,42,BC,blocked,3,correct,1060
4,3b,speeded_recognition,43,foil,blocked,N/A,incorrect,982
4,3b,speeded_recognition,44,AB,intermixed,4,correct,982
4,3b,speeded_recognition,45,foil,blocked,N/A,incorrect,1283
4,3b,speeded_recognition,46,AC,intermixed,6,incorrect,1025
4,3b,speeded_recognition,47,BC,blocked,2,correct,1149
4,3b,speeded_recognition,48,BC,intermixed,6,correct,1517
4,3b,explicit_inference,1,AC,intermixed,6,incorrect,5402
4,3b,explicit_inference,2,AC,intermixed,4,incorrect,3381
4,3b,explicit_inference,3,AC,blocked,1,correct,2516
4,3b,explicit_inference,4,AC,blocked,2,correct,3712
4,3b,explicit_inference,5,AC,blocked,3,correct,2639
4,3b,explicit_inference,6,AC,intermixed,5,correct,2631
4,3b,explicit_inference,7,AC,blocked,2,correct,1934
4,3b,explicit_inference,8,AC,intermixed,6,correct,2323
4,3b,explicit_inference,9,AC,blocked,3,incorrect,2845
4,3b,explicit_inference,10,AC,intermixed,4,incorrect,3421
4,3b,explicit_inference,11,AC,intermixed,5,correct,3053
4,3b,explicit_inference,12,AC,blocked,1,correct,2908
4,3b,explicit_direct,1,AB,intermixed,5,incorrect,4005
4,3b,explicit_direct,2,AB,intermixed,6,incorrect,3837
4,3b,explicit_direct,3,AB,intermixed,4,incorrect,3245
4,3b,explicit_direct,4,AB,blocked,1,correct,3534
4,3b,explicit_direct,5,BC,intermixed,5,incorrect,2388
4,3b,explicit_direct,6,BC,blocked,2,incorrect,2632
4,3b,explicit_direct,7,AB,blocked,3,correct,2078
4,3b,explicit_direct,8,AB,blocked,2,correct,2040
4,3b,explicit_direct,9,AB,blocked,1,incorrect,1872
4,3b,explicit_direct,10,AB,intermixed,4,incorrect,2617
4,3b,explicit_direct,11,BC,intermixed,6,incorrect,5088
4,3b,explicit_direct,12,BC,intermixed,5,incorrect,4526
4,3b,explicit_direct,13,AB,intermixed,6,incorrect,4189
4,3b,explicit_direct,14,BC,blocked,3,incorrect,4404
4,3b,explicit_direct,15,BC,intermixed,6,incorrect,2694
4,3b,explicit_direct,16,BC,blocked,3,incorrect,3000
4,3b,explicit_direct,17,AB,intermixed,5,correct,3299
4,3b,explicit_direct,18,BC,blocked,1,correct,2623
4,3b,explicit_direct,19,AB,blocked,3,correct,4743
4,3b,explicit_direct,20,BC,blocked,1,correct,5886
4,3b,explicit_direct,21,BC,intermixed,4,correct,2739
4,3b,explicit_direct,22,BC,blocked,2,correct,4743
4,3b,explicit_direct,23,BC,intermixed,4,incorrect,1847
4,3b,explicit_direct,24,AB,blocked,2,correct,2877
5,3b,speeded_recognition,1,BC,intermixed,5,incorrect,1256
5,3b,speeded_recognition,2,AB,blocked,2,correct,1759
5,3b,speeded_recognition,3,AB,intermixed,5,correct,1894
5,3b,speeded_recognition,4,AB,blocked,2,incorrect,1599
5,3b,speeded_recognition,5,AB,intermixed,6,correct,2079
5,3b,speeded_recognition,6,BC,blocked,2,correct,1462
5,3b,speeded_recognition,7,foil,intermixed,N/A,correct,1198
5,3b,speeded_recognition,8,BC,blocked,3,correct,2183
5,3b,speeded_recognition,9,AC,intermixed,4,incorrect,1080
5,3b,speeded_recognition,10,foil,blocked,N/A,correct,1615
5,3b,speeded_recognition,11,foil,intermixed,N/A,incorrect,1045
5,3b,speeded_recognition,12,AB,blocked,3,incorrect,2590
5,3b,speeded_recognition,13,AC,intermixed,5,incorrect,710
5,3b,speeded_recognition,14,BC,blocked,1,incorrect,857
5,3b,speeded_recognition,15,BC,intermixed,4,correct,1078
5,3b,speeded_recognition,16,AB,blocked,1,incorrect,1438
5,3b,speeded_recognition,17,AC,intermixed,6,incorrect,935
5,3b,speeded_recognition,18,AC,blocked,3,correct,1502
5,3b,speeded_recognition,19,foil,intermixed,N/A,incorrect,1056
5,3b,speeded_recognition,20,AB,intermixed,5,correct,1088
5,3b,speeded_recognition,21,foil,blocked,N/A,correct,1383
5,3b,speeded_recognition,22,AB,blocked,3,correct,880
5,3b,speeded_recognition,23,BC,intermixed,6,correct,1166
5,3b,speeded_recognition,24,AC,blocked,2,incorrect,1270
5,3b,speeded_recognition,25,BC,intermixed,4,correct,1184
5,3b,speeded_recognition,26,foil,blocked,N/A,correct,1374
5,3b,speeded_recognition,27,foil,blocked,N/A,incorrect,1001
5,3b,speeded_recognition,28,AC,blocked,1,correct,1296
5,3b,speeded_recognition,29,AB,intermixed,4,correct,631
5,3b,speeded_recognition,30,foil,intermixed,N/A,incorrect,1074
5,3b,speeded_recognition,31,AB,blocked,1,correct,966
5,3b,speeded_recognition,32,BC,intermixed,5,correct,1214
5,3b,speeded_recognition,33,AC,blocked,3,incorrect,895
5,3b,speeded_recognition,34,AB,intermixed,4,correct,1295
5,3b,speeded_recognition,35,AC,blocked,1,incorrect,1174
5,3b,speeded_recognition,36,AB,intermixed,6,correct,1448
5,3b,speeded_recognition,37,BC,blocked,3,incorrect,1203
5,3b,speeded_recognition,38,BC,intermixed,6,correct,944
5,3b,speeded_recognition,39,BC,blocked,2,correct,1071
5,3b,speeded_recognition,40,AC,intermixed,6,incorrect,1017
5,3b,speeded_recognition,41,BC,blocked,1,incorrect,1559
5,3b,speeded_recognition,42,AC,intermixed,4,incorrect,1752
5,3b,speeded_recognition,43,foil,blocked,N/A,incorrect,1366
5,3b,speeded_recognition,44,foil,intermixed,N/A,incorrect,976
5,3b,speeded_recognition,45,foil,blocked,N/A,incorrect,951
5,3b,speeded_recognition,46,AC,intermixed,5,incorrect,1288
5,3b,speeded_recognition,47,AC,blocked,2,incorrect,979
5,3b,speeded_recognition,48,foil,intermixed,N/A,incorrect,976
5,3b,explicit_inference,1,AC,blocked,1,incorrect,6986
5,3b,explicit_inference,2,AC,blocked,3,incorrect,3073
5,3b,explicit_inference,3,AC,intermixed,4,correct,2518
5,3b,explicit_inference,4,AC,intermixed,6,correct,3560
5,3b,explicit_inference,5,AC,blocked,2,correct,2555
5,3b,explicit_inference,6,AC,intermixed,4,correct,2883
5,3b,explicit_inference,7,AC,blocked,2,correct,2435
5,3b,explicit_inference,8,AC,blocked,3,correct,2251
5,3b,explicit_inference,9,AC,intermixed,5,incorrect,2132
5,3b,explicit_inference,10,AC,intermixed,6,incorrect,1315
5,3b,explicit_inference,11,AC,intermixed,5,correct,1733
5,3b,explicit_inference,12,AC,blocked,1,incorrect,2225
5,3b,explicit_direct,1,AB,intermixed,4,correct,1716
5,3b,explicit_direct,2,AB,intermixed,6,incorrect,1484
5,3b,explicit_direct,3,AB,blocked,3,incorrect,1401
5,3b,explicit_direct,4,BC,intermixed,6,correct,1538
5,3b,explicit_direct,5,AB,blocked,1,incorrect,1758
5,3b,explicit_direct,6,AB,blocked,3,correct,1688
5,3b,explicit_direct,7,BC,blocked,2,correct,2630
5,3b,explicit_direct,8,AB,intermixed,5,correct,2013
5,3b,explicit_direct,9,AB,intermixed,6,incorrect,1819
5,3b,explicit_direct,10,BC,blocked,3,incorrect,1502
5,3b,explicit_direct,11,AB,blocked,2,correct,2252
5,3b,explicit_direct,12,BC,blocked,1,correct,1449
5,3b,explicit_direct,13,BC,intermixed,5,correct,1506
5,3b,explicit_direct,14,AB,intermixed,4,correct,1155
5,3b,explicit_direct,15,BC,blocked,2,incorrect,1860
5,3b,explicit_direct,16,BC,blocked,3,incorrect,1333
5,3b,explicit_direct,17,AB,intermixed,5,incorrect,1113
5,3b,explicit_direct,18,BC,blocked,1,incorrect,1279
5,3b,explicit_direct,19,BC,intermixed,4,incorrect,1240
5,3b,explicit_direct,20,BC,intermixed,5,correct,1401
5,3b,explicit_direct,21,AB,blocked,2,correct,1670
5,3b,explicit_direct,22,BC,intermixed,6,incorrect,1414
5,3b,explicit_direct,23,AB,blocked,1,correct,1626
5,3b,explicit_direct,24,BC,intermixed,4,correct,1567
6,3b,speeded_recognition,1,foil,intermixed,N/A,incorrect,1708
6,3b,speeded_recognition,2,AB,blocked,2,incorrect,1899
6,3b,speeded_recognition,3,foil,blocked,N/A,incorrect,1052
6,3b,speeded_recognition,4,AB,intermixed,4,incorrect,783
6,3b,speeded_recognition,5,AB,blocked,1,correct,291
6,3b,speeded_recognition,6,BC,intermixed,4,correct,389
6,3b,speeded_recognition,7,BC,blocked,3,correct,1632
6,3b,speeded_recognition,8,BC,intermixed,6,correct,697
6,3b,speeded_recognition,9,foil,blocked,N/A,incorrect,65
6,3b,speeded_recognition,10,AB,intermixed,6,correct,216
6,3b,speeded_recognition,11,BC,blocked,2,correct,130
6,3b,speeded_recognition,12,foil,intermixed,N/A,correct,1247
6,3b,speeded_recognition,13,BC,intermixed,4,correct,281
6,3b,speeded_recognition,14,foil,blocked,N/A,incorrect,216
6,3b,speeded_recognition,15,AB,intermixed,4,correct,228
6,3b,speeded_recognition,16,AB,blocked,1,correct,189
6,3b,speeded_recognition,17,foil,blocked,N/A,incorrect,139
6,3b,speeded_recognition,18,AC,intermixed,4,incorrect,170
6,3b,speeded_recognition,19,AB,blocked,2,correct,30
6,3b,speeded_recognition,20,foil,intermixed,N/A,incorrect,450
6,3b,speeded_recognition,21,BC,intermixed,5,correct,503
6,3b,speeded_recognition,22,BC,blocked,2,correct,546
6,3b,speeded_recognition,23,AB,intermixed,5,correct,2203
6,3b,speeded_recognition,24,AC,blocked,3,incorrect,3296
6,3b,speeded_recognition,25,AC,intermixed,5,incorrect,264
6,3b,speeded_recognition,26,foil,intermixed,N/A,incorrect,185
6,3b,speeded_recognition,27,AC,blocked,1,incorrect,809
6,3b,speeded_recognition,28,AC,intermixed,4,incorrect,333
6,3b,speeded_recognition,29,foil,blocked,N/A,incorrect,820
6,3b,speeded_recognition,30,AB,blocked,3,correct,236
6,3b,speeded_recognition,31,BC,intermixed,6,correct,188
6,3b,speeded_recognition,32,BC,blocked,1,correct,149
6,3b,speeded_recognition,33,AC,intermixed,6,incorrect,61
6,3b,speeded_recognition,34,AC,blocked,3,incorrect,98
6,3b,speeded_recognition,35,foil,intermixed,N/A,incorrect,106
6,3b,speeded_recognition,36,foil,blocked,N/A,incorrect,388
6,3b,speeded_recognition,37,AC,intermixed,5,incorrect,73
6,3b,speeded_recognition,38,AC,blocked,2,incorrect,764
6,3b,speeded_recognition,39,AC,intermixed,6,incorrect,889
6,3b,speeded_recognition,40,AC,blocked,2,incorrect,96
6,3b,speeded_recognition,41,AB,intermixed,6,correct,667
6,3b,speeded_recognition,42,AB,blocked,3,correct,68
6,3b,speeded_recognition,43,AB,intermixed,5,correct,31
6,3b,speeded_recognition,44,AC,blocked,1,incorrect,401
6,3b,speeded_recognition,45,BC,intermixed,5,correct,37
6,3b,speeded_recognition,46,BC,blocked,1,correct,388
6,3b,speeded_recognition,47,foil,intermixed,N/A,incorrect,602
6,3b,speeded_recognition,48,BC,blocked,3,correct,19
6,3b,explicit_inference,1,AC,intermixed,4,incorrect,8851
6,3b,explicit_inference,2,AC,intermixed,6,correct,4302
6,3b,explicit_inference,3,AC,blocked,3,incorrect,2454
6,3b,explicit_inference,4,AC,blocked,1,correct,2583
6,3b,explicit_inference,5,AC,intermixed,6,incorrect,2465
6,3b,explicit_inference,6,AC,blocked,3,correct,3954
6,3b,explicit_inference,7,AC,intermixed,5,correct,3620
6,3b,explicit_inference,8,AC,intermixed,4,incorrect,2485
6,3b,explicit_inference,9,AC,blocked,1,incorrect,1827
6,3b,explicit_inference,10,AC,blocked,2,correct,4462
6,3b,explicit_inference,11,AC,intermixed,5,incorrect,2182
6,3b,explicit_inference,12,AC,blocked,2,correct,2389
6,3b,explicit_direct,1,AB,intermixed,6,correct,3511
6,3b,explicit_direct,2,AB,blocked,3,correct,2904
6,3b,explicit_direct,3,AB,blocked,1,incorrect,3161
6,3b,explicit_direct,4,BC,blocked,3,correct,2873
6,3b,explicit_direct,5,BC,blocked,1,incorrect,2800
6,3b,explicit_direct,6,BC,intermixed,6,correct,2289
6,3b,explicit_direct,7,BC,intermixed,5,correct,2593
6,3b,explicit_direct,8,BC,blocked,1,correct,2364
6,3b,explicit_direct,9,AB,blocked,2,correct,2286
6,3b,explicit_direct,10,BC,intermixed,5,incorrect,2450
6,3b,explicit_direct,11,BC,blocked,3,correct,1479
6,3b,explicit_direct,12,AB,blocked,1,incorrect,1888
6,3b,explicit_direct,13,BC,blocked,2,incorrect,4591
6,3b,explicit_direct,14,BC,intermixed,4,incorrect,1854
6,3b,explicit_direct,15,BC,blocked,2,incorrect,2312
6,3b,explicit_direct,16,AB,blocked,3,incorrect,1961
6,3b,explicit_direct,17,AB,intermixed,6,correct,7567
6,3b,explicit_direct,18,AB,intermixed,5,incorrect,2728
6,3b,explicit_direct,19,BC,intermixed,4,incorrect,3514
6,3b,explicit_direct,20,AB,intermixed,5,correct,3746
6,3b,explicit_direct,21,BC,intermixed,6,correct,2571
6,3b,explicit_direct,22,AB,intermixed,4,incorrect,1212
6,3b,explicit_direct,23,AB,blocked,2,incorrect,1750
6,3b,explicit_direct,24,AB,intermixed,4,correct,1689
7,3b,speeded_recognition,1,AC,blocked,2,incorrect,1560
7,3b,speeded_recognition,2,AC,intermixed,4,incorrect,1554
7,3b,speeded_recognition,3,BC,blocked,1,correct,1760
7,3b,speeded_recognition,4,AC,intermixed,5,correct,1223
7,3b,speeded_recognition,5,AB,blocked,3,correct,1674
7,3b,speeded_recognition,6,foil,blocked,N/A,correct,1353
7,3b,speeded_recognition,7,BC,blocked,2,correct,1760
7,3b,speeded_recognition,8,AB,intermixed,5,correct,1947
7,3b,speeded_recognition,9,foil,intermixed,N/A,correct,1540
7,3b,speeded_recognition,10,AB,blocked,3,correct,1528
7,3b,speeded_recognition,11,foil,intermixed,N/A,correct,1234
7,3b,speeded_recognition,12,AB,intermixed,6,correct,1552
7,3b,speeded_recognition,13,BC,blocked,3,incorrect,2590
7,3b,speeded_recognition,14,AB,intermixed,4,correct,1867
7,3b,speeded_recognition,15,foil,blocked,N/A,correct,2358
7,3b,speeded_recognition,16,AC,intermixed,4,incorrect,1296
7,3b,speeded_recognition,17,BC,blocked,1,incorrect,1317
7,3b,speeded_recognition,18,AB,intermixed,4,correct,1459
7,3b,speeded_recognition,19,foil,intermixed,N/A,incorrect,1186
7,3b,speeded_recognition,20,AB,blocked,2,correct,1025
7,3b,speeded_recognition,21,AC,intermixed,6,incorrect,1175
7,3b,speeded_recognition,22,AB,blocked,1,correct,1305
7,3b,speeded_recognition,23,BC,intermixed,4,correct,1109
7,3b,speeded_recognition,24,BC,blocked,2,incorrect,2350
7,3b,speeded_recognition,25,foil,intermixed,N/A,correct,2091
7,3b,speeded_recognition,26,AB,intermixed,6,correct,1083
7,3b,speeded_recognition,27,AC,blocked,3,correct,2584
7,3b,speeded_recognition,28,BC,intermixed,5,incorrect,1108
7,3b,speeded_recognition,29,AC,blocked,2,incorrect,2091
7,3b,speeded_recognition,30,BC,intermixed,6,correct,1044
7,3b,speeded_recognition,31,foil,intermixed,N/A,correct,985
7,3b,speeded_recognition,32,AB,intermixed,5,correct,1339
7,3b,speeded_recognition,33,foil,blocked,N/A,incorrect,2002
7,3b,speeded_recognition,34,BC,blocked,3,incorrect,1604
7,3b,speeded_recognition,35,BC,intermixed,4,correct,1489
7,3b,speeded_recognition,36,AC,blocked,3,incorrect,1533
7,3b,speeded_recognition,37,AC,intermixed,5,incorrect,1332
7,3b,speeded_recognition,38,foil,blocked,N/A,incorrect,1270
7,3b,speeded_recognition,39,AB,blocked,2,correct,1252
7,3b,speeded_recognition,40,BC,intermixed,6,correct,884
7,3b,speeded_recognition,41,AC,blocked,1,correct,1871
7,3b,speeded_recognition,42,foil,blocked,N/A,incorrect,2150
7,3b,speeded_recognition,43,AB,blocked,1,correct,1236
7,3b,speeded_recognition,44,foil,intermixed,N/A,incorrect,1331
7,3b,speeded_recognition,45,BC,intermixed,5,incorrect,871
7,3b,speeded_recognition,46,foil,blocked,N/A,incorrect,1324
7,3b,speeded_recognition,47,AC,intermixed,6,incorrect,1799
7,3b,speeded_recognition,48,AC,blocked,1,correct,1629
7,3b,explicit_inference,1,AC,blocked,2,correct,5258
7,3b,explicit_inference,2,AC,intermixed,5,correct,4611
7,3b,explicit_inference,3,AC,blocked,1,correct,4050
7,3b,explicit_inference,4,AC,blocked,3,correct,5313
7,3b,explicit_inference,5,AC,blocked,1,incorrect,3397
7,3b,explicit_inference,6,AC,blocked,2,correct,2285
7,3b,explicit_inference,7,AC,intermixed,5,incorrect,2667
7,3b,explicit_inference,8,AC,intermixed,4,correct,1786
7,3b,explicit_inference,9,AC,intermixed,6,correct,2171
7,3b,explicit_inference,10,AC,blocked,3,incorrect,2388
7,3b,explicit_inference,11,AC,intermixed,4,correct,1986
7,3b,explicit_inference,12,AC,intermixed,6,correct,1595
7,3b,explicit_direct,1,AB,intermixed,6,correct,6794
7,3b,explicit_direct,2,AB,intermixed,5,correct,3789
7,3b,explicit_direct,3,AB,blocked,3,incorrect,5033
7,3b,explicit_direct,4,AB,intermixed,6,correct,3014
7,3b,explicit_direct,5,AB,blocked,3,correct,2272
7,3b,explicit_direct,6,BC,intermixed,6,correct,1725
7,3b,explicit_direct,7,AB,intermixed,4,incorrect,1954
7,3b,explicit_direct,8,BC,intermixed,5,incorrect,3794
7,3b,explicit_direct,9,AB,blocked,2,incorrect,2798
7,3b,explicit_direct,10,BC,intermixed,4,correct,4062
7,3b,explicit_direct,11,AB,blocked,1,correct,3270
7,3b,explicit_direct,12,BC,intermixed,6,correct,1753
7,3b,explicit_direct,13,BC,blocked,3,correct,3742
7,3b,explicit_direct,14,BC,blocked,2,correct,2950
7,3b,explicit_direct,15,AB,blocked,1,incorrect,2261
7,3b,explicit_direct,16,AB,intermixed,4,correct,2299
7,3b,explicit_direct,17,BC,blocked,3,correct,2443
7,3b,explicit_direct,18,AB,blocked,2,correct,2801
7,3b,explicit_direct,19,BC,intermixed,5,correct,4103
7,3b,explicit_direct,20,BC,intermixed,4,correct,2876
7,3b,explicit_direct,21,BC,blocked,1,correct,3349
7,3b,explicit_direct,22,AB,intermixed,5,correct,2580
7,3b,explicit_direct,23,BC,blocked,1,incorrect,1962
7,3b,explicit_direct,24,BC,blocked,2,correct,2388
8,3b,speeded_recognition,1,BC,intermixed,6,correct,842
8,3b,speeded_recognition,2,AC,blocked,1,correct,948
8,3b,speeded_recognition,3,BC,intermixed,5,correct,1103
8,3b,speeded_recognition,4,AB,blocked,1,incorrect,1338
8,3b,speeded_recognition,5,AB,intermixed,6,correct,1605
8,3b,speeded_recognition,6,BC,blocked,3,correct,1104
8,3b,speeded_recognition,7,AB,intermixed,6,correct,1014
8,3b,speeded_recognition,8,BC,blocked,1,correct,720
8,3b,speeded_recognition,9,AB,intermixed,4,correct,730
8,3b,speeded_recognition,10,AC,blocked,3,correct,1079
8,3b,speeded_recognition,11,AB,intermixed,5,correct,897
8,3b,speeded_recognition,12,foil,blocked,N/A,correct,1326
8,3b,speeded_recognition,13,BC,blocked,2,correct,1092
8,3b,speeded_recognition,14,BC,intermixed,4,correct,696
8,3b,speeded_recognition,15,AB,blocked,2,correct,833
8,3b,speeded_recognition,16,foil,blocked,N/A,incorrect,944
8,3b,speeded_recognition,17,AB,intermixed,5,correct,708
8,3b,speeded_recognition,18,AB,blocked,2,correct,833
8,3b,speeded_recognition,19,AC,intermixed,4,incorrect,899
8,3b,speeded_recognition,20,foil,intermixed,N/A,incorrect,912
8,3b,speeded_recognition,21,AC,blocked,2,incorrect,718
8,3b,speeded_recognition,22,foil,blocked,N/A,incorrect,833
8,3b,speeded_recognition,23,BC,intermixed,4,correct,630
8,3b,speeded_recognition,24,foil,blocked,N/A,incorrect,642
8,3b,speeded_recognition,25,foil,intermixed,N/A,incorrect,796
8,3b,speeded_recognition,26,BC,blocked,3,correct,911
8,3b,speeded_recognition,27,foil,intermixed,N/A,incorrect,912
8,3b,speeded_recognition,28,AC,intermixed,5,incorrect,921
8,3b,speeded_recognition,29,AB,blocked,1,correct,921
8,3b,speeded_recognition,30,foil,blocked,N/A,incorrect,552
8,3b,speeded_recognition,31,AB,blocked,3,correct,597
8,3b,speeded_recognition,32,AC,intermixed,5,incorrect,585
8,3b,speeded_recognition,33,AC,blocked,1,incorrect,619
8,3b,speeded_recognition,34,AB,intermixed,4,correct,606
8,3b,speeded_recognition,35,AB,blocked,3,correct,584
8,3b,speeded_recognition,36,AC,intermixed,6,incorrect,1204
8,3b,speeded_recognition,37,AC,blocked,3,incorrect,920
8,3b,speeded_recognition,38,BC,intermixed,5,correct,912
8,3b,speeded_recognition,39,AC,blocked,2,incorrect,954
8,3b,speeded_recognition,40,foil,intermixed,N/A,incorrect,630
8,3b,speeded_recognition,41,BC,intermixed,6,incorrect,932
8,3b,speeded_recognition,42,BC,blocked,1,correct,754
8,3b,speeded_recognition,43,foil,intermixed,N/A,correct,943
8,3b,speeded_recognition,44,AC,intermixed,4,incorrect,809
8,3b,speeded_recognition,45,foil,blocked,N/A,incorrect,888
8,3b,speeded_recognition,46,AC,intermixed,6,incorrect,946
8,3b,speeded_recognition,47,BC,blocked,2,correct,1021
8,3b,speeded_recognition,48,foil,intermixed,N/A,incorrect,886
8,3b,explicit_inference,1,AC,blocked,3,correct,3553
8,3b,explicit_inference,2,AC,blocked,1,incorrect,2439
8,3b,explicit_inference,3,AC,blocked,2,correct,2418
8,3b,explicit_inference,4,AC,intermixed,6,correct,1507
8,3b,explicit_inference,5,AC,intermixed,5,incorrect,2170
8,3b,explicit_inference,6,AC,blocked,1,incorrect,1810
8,3b,explicit_inference,7,AC,intermixed,5,incorrect,1226
8,3b,explicit_inference,8,AC,blocked,2,correct,2181
8,3b,explicit_inference,9,AC,intermixed,6,correct,1652
8,3b,explicit_inference,10,AC,intermixed,4,correct,1461
8,3b,explicit_inference,11,AC,blocked,3,incorrect,1697
8,3b,explicit_inference,12,AC,intermixed,4,incorrect,1079
8,3b,explicit_direct,1,AB,intermixed,4,correct,1112
8,3b,explicit_direct,2,AB,intermixed,6,correct,1022
8,3b,explicit_direct,3,AB,intermixed,5,correct,1281
8,3b,explicit_direct,4,BC,blocked,1,correct,1382
8,3b,explicit_direct,5,BC,intermixed,4,correct,1293
8,3b,explicit_direct,6,BC,intermixed,5,correct,1146
8,3b,explicit_direct,7,AB,blocked,3,correct,1562
8,3b,explicit_direct,8,BC,intermixed,6,correct,2136
8,3b,explicit_direct,9,AB,blocked,1,correct,1394
8,3b,explicit_direct,10,AB,blocked,3,correct,1619
8,3b,explicit_direct,11,AB,intermixed,6,correct,1067
8,3b,explicit_direct,12,BC,blocked,3,correct,1990
8,3b,explicit_direct,13,BC,blocked,2,incorrect,1180
8,3b,explicit_direct,14,BC,intermixed,4,correct,1461
8,3b,explicit_direct,15,AB,intermixed,5,incorrect,1416
8,3b,explicit_direct,16,AB,blocked,1,incorrect,1248
8,3b,explicit_direct,17,AB,intermixed,4,correct,1022
8,3b,explicit_direct,18,AB,blocked,2,incorrect,1247
8,3b,explicit_direct,19,BC,intermixed,6,incorrect,854
8,3b,explicit_direct,20,BC,intermixed,5,correct,1270
8,3b,explicit_direct,21,AB,blocked,2,correct,1810
8,3b,explicit_direct,22,BC,blocked,1,correct,1361
8,3b,explicit_direct,23,BC,blocked,3,incorrect,1654
8,3b,explicit_direct,24,BC,blocked,2,correct,2068
9,3b,speeded_recognition,1,AC,intermixed,5,incorrect,1012
9,3b,speeded_recognition,2,BC,blocked,2,correct,1079
9,3b,speeded_recognition,3,AB,intermixed,5,incorrect,1075
9,3b,speeded_recognition,4,AB,blocked,1,correct,1014
9,3b,speeded_recognition,5,BC,intermixed,6,correct,971
9,3b,speeded_recognition,6,AB,blocked,1,correct,1321
9,3b,speeded_recognition,7,BC,intermixed,6,correct,1217
9,3b,speeded_recognition,8,BC,blocked,2,correct,1260
9,3b,speeded_recognition,9,foil,blocked,N/A,correct,1028
9,3b,speeded_recognition,10,BC,intermixed,4,correct,1237
9,3b,speeded_recognition,11,foil,blocked,N/A,incorrect,1124
9,3b,speeded_recognition,12,BC,blocked,3,incorrect,1322
9,3b,speeded_recognition,13,AC,intermixed,4,correct,1246
9,3b,speeded_recognition,14,foil,intermixed,N/A,correct,1408
9,3b,speeded_recognition,15,AC,blocked,2,correct,1276
9,3b,speeded_recognition,16,AB,intermixed,6,correct,1028
9,3b,speeded_recognition,17,AB,blocked,2,correct,1079
9,3b,speeded_recognition,18,AC,intermixed,6,correct,1132
9,3b,speeded_recognition,19,AC,blocked,1,incorrect,1337
9,3b,speeded_recognition,20,AB,intermixed,4,correct,1201
9,3b,speeded_recognition,21,foil,blocked,N/A,correct,1068
9,3b,speeded_recognition,22,BC,blocked,1,correct,1021
9,3b,speeded_recognition,23,AB,intermixed,4,correct,1108
9,3b,speeded_recognition,24,BC,blocked,3,correct,947
9,3b,speeded_recognition,25,foil,blocked,N/A,correct,1091
9,3b,speeded_recognition,26,AC,intermixed,4,incorrect,1188
9,3b,speeded_recognition,27,BC,blocked,1,correct,920
9,3b,speeded_recognition,28,foil,blocked,N/A,correct,1021
9,3b,speeded_recognition,29,AB,intermixed,5,correct,971
9,3b,speeded_recognition,30,AC,blocked,1,correct,1222
9,3b,speeded_recognition,31,foil,intermixed,N/A,incorrect,1327
9,3b,speeded_recognition,32,BC,intermixed,5,correct,1010
9,3b,speeded_recognition,33,AB,blocked,2,correct,1076
9,3b,speeded_recognition,34,AC,intermixed,6,correct,1068
9,3b,speeded_recognition,35,AC,blocked,3,correct,1219
9,3b,speeded_recognition,36,foil,intermixed,N/A,incorrect,977
9,3b,speeded_recognition,37,AB,blocked,3,incorrect,935
9,3b,speeded_recognition,38,foil,intermixed,N/A,correct,1242
9,3b,speeded_recognition,39,BC,intermixed,5,correct,1207
9,3b,speeded_recognition,40,AB,blocked,3,incorrect,949
9,3b,speeded_recognition,41,foil,blocked,N/A,correct,1001
9,3b,speeded_recognition,42,foil,intermixed,N/A,incorrect,1164
9,3b,speeded_recognition,43,BC,intermixed,4,correct,1106
9,3b,speeded_recognition,44,AC,blocked,2,correct,1372
9,3b,speeded_recognition,45,foil,intermixed,N/A,correct,922
9,3b,speeded_recognition,46,AB,intermixed,6,correct,1386
9,3b,speeded_recognition,47,AC,blocked,3,correct,1158
9,3b,speeded_recognition,48,AC,intermixed,5,incorrect,1409
9,3b,explicit_inference,1,AC,blocked,3,incorrect,2709
9,3b,explicit_inference,2,AC,blocked,2,incorrect,1858
9,3b,explicit_inference,3,AC,intermixed,5,correct,2865
9,3b,explicit_inference,4,AC,intermixed,4,correct,2404
9,3b,explicit_inference,5,AC,blocked,2,incorrect,2701
9,3b,explicit_inference,6,AC,blocked,3,incorrect,2379
9,3b,explicit_inference,7,AC,intermixed,6,correct,2004
9,3b,explicit_inference,8,AC,blocked,1,correct,1996
9,3b,explicit_inference,9,AC,intermixed,4,correct,1899
9,3b,explicit_inference,10,AC,blocked,1,correct,1741
9,3b,explicit_inference,11,AC,intermixed,6,incorrect,1841
9,3b,explicit_inference,12,AC,intermixed,5,incorrect,2215
9,3b,explicit_direct,1,AB,intermixed,4,correct,2131
9,3b,explicit_direct,2,BC,blocked,3,correct,2356
9,3b,explicit_direct,3,BC,blocked,2,correct,2741
9,3b,explicit_direct,4,AB,blocked,3,incorrect,1661
9,3b,explicit_direct,5,BC,intermixed,6,incorrect,2424
9,3b,explicit_direct,6,BC,intermixed,5,correct,1936
9,3b,explicit_direct,7,BC,blocked,2,correct,1884
9,3b,explicit_direct,8,BC,blocked,3,correct,2602
9,3b,explicit_direct,9,AB,blocked,1,correct,1767
9,3b,explicit_direct,10,BC,intermixed,5,correct,2107
9,3b,explicit_direct,11,AB,blocked,2,incorrect,1604
9,3b,explicit_direct,12,AB,intermixed,4,incorrect,2635
9,3b,explicit_direct,13,AB,blocked,2,incorrect,2182
9,3b,explicit_direct,14,BC,intermixed,4,correct,1936
9,3b,explicit_direct,15,BC,blocked,1,correct,2000
9,3b,explicit_direct,16,BC,intermixed,4,incorrect,1520
9,3b,explicit_direct,17,BC,intermixed,6,incorrect,1767
9,3b,explicit_direct,18,AB,blocked,3,incorrect,1729
9,3b,explicit_direct,19,AB,blocked,1,correct,1824
9,3b,explicit_direct,20,AB,intermixed,6,incorrect,1771
9,3b,explicit_direct,21,AB,intermixed,5,incorrect,1459
9,3b,explicit_direct,22,AB,intermixed,6,correct,1862
9,3b,explicit_direct,23,AB,intermixed,5,correct,2324
9,3b,explicit_direct,24,BC,blocked,1,correct,1637
10,3b,speeded_recognition,1,foil,blocked,N/A,N/A,N/A
10,3b,speeded_recognition,2,BC,intermixed,4,correct,1377
10,3b,speeded_recognition,3,AB,blocked,2,correct,1004
10,3b,speeded_recognition,4,AB,intermixed,5,correct,911
10,3b,speeded_recognition,5,AC,blocked,3,correct,1170
10,3b,speeded_recognition,6,BC,intermixed,6,correct,1012
10,3b,speeded_recognition,7,BC,blocked,2,correct,1952
10,3b,speeded_recognition,8,AC,intermixed,6,incorrect,796
10,3b,speeded_recognition,9,foil,blocked,N/A,incorrect,1000
10,3b,speeded_recognition,10,AC,intermixed,5,incorrect,1297
10,3b,speeded_recognition,11,AC,blocked,1,correct,1536
10,3b,speeded_recognition,12,AB,intermixed,6,correct,1158
10,3b,speeded_recognition,13,AB,blocked,2,correct,962
10,3b,speeded_recognition,14,foil,intermixed,N/A,incorrect,962
10,3b,speeded_recognition,15,AB,intermixed,6,correct,891
10,3b,speeded_recognition,16,BC,blocked,2,incorrect,987
10,3b,speeded_recognition,17,foil,blocked,N/A,N/A,N/A
10,3b,speeded_recognition,18,AC,intermixed,6,incorrect,776
10,3b,speeded_recognition,19,foil,blocked,N/A,correct,1258
10,3b,speeded_recognition,20,AC,intermixed,4,incorrect,912
10,3b,speeded_recognition,21,BC,blocked,3,correct,1160
10,3b,speeded_recognition,22,AC,intermixed,4,incorrect,732
10,3b,speeded_recognition,23,foil,intermixed,N/A,incorrect,853
10,3b,speeded_recognition,24,AB,blocked,3,correct,882
10,3b,speeded_recognition,25,foil,blocked,N/A,correct,872
10,3b,speeded_recognition,26,AB,blocked,1,correct,807
10,3b,speeded_recognition,27,AB,intermixed,4,correct,773
10,3b,speeded_recognition,28,AC,blocked,3,correct,1734
10,3b,speeded_recognition,29,BC,intermixed,6,correct,614
10,3b,speeded_recognition,30,AB,blocked,1,correct,536
10,3b,speeded_recognition,31,foil,intermixed,N/A,incorrect,664
10,3b,speeded_recognition,32,AC,blocked,2,correct,822
10,3b,speeded_recognition,33,foil,intermixed,N/A,incorrect,476
10,3b,speeded_recognition,34,BC,intermixed,5,correct,822
10,3b,speeded_recognition,35,BC,blocked,1,incorrect,723
10,3b,speeded_recognition,36,BC,intermixed,4,correct,693
10,3b,speeded_recognition,37,foil,intermixed,N/A,incorrect,585
10,3b,speeded_recognition,38,AB,blocked,3,correct,641
10,3b,speeded_recognition,39,AB,intermixed,4,correct,723
10,3b,speeded_recognition,40,BC,blocked,1,correct,685
10,3b,speeded_recognition,41,BC,intermixed,5,correct,595
10,3b,speeded_recognition,42,BC,blocked,3,correct,695
10,3b,speeded_recognition,43,AC,intermixed,5,incorrect,605
10,3b,speeded_recognition,44,foil,blocked,N/A,correct,663
10,3b,speeded_recognition,45,AC,blocked,2,correct,1054
10,3b,speeded_recognition,46,AB,intermixed,5,correct,764
10,3b,speeded_recognition,47,AC,blocked,1,correct,575
10,3b,speeded_recognition,48,foil,intermixed,N/A,incorrect,504
10,3b,explicit_inference,1,AC,intermixed,4,incorrect,4449
10,3b,explicit_inference,2,AC,intermixed,6,incorrect,3750
10,3b,explicit_inference,3,AC,blocked,2,incorrect,3896
10,3b,explicit_inference,4,AC,intermixed,5,correct,4157
10,3b,explicit_inference,5,AC,intermixed,6,correct,4895
10,3b,explicit_inference,6,AC,blocked,3,correct,4137
10,3b,explicit_inference,7,AC,blocked,1,correct,3335
10,3b,explicit_inference,8,AC,intermixed,5,incorrect,1741
10,3b,explicit_inference,9,AC,intermixed,4,incorrect,2710
10,3b,explicit_inference,10,AC,blocked,3,correct,5340
10,3b,explicit_inference,11,AC,blocked,2,incorrect,1962
10,3b,explicit_inference,12,AC,blocked,1,correct,2992
10,3b,explicit_direct,1,AB,intermixed,5,incorrect,7990
10,3b,explicit_direct,2,AB,intermixed,4,N/A,N/A
10,3b,explicit_direct,3,AB,blocked,1,correct,2841
10,3b,explicit_direct,4,BC,intermixed,5,correct,2365
10,3b,explicit_direct,5,AB,blocked,2,incorrect,2609
10,3b,explicit_direct,6,BC,blocked,1,incorrect,2372
10,3b,explicit_direct,7,AB,intermixed,5,correct,3195
10,3b,explicit_direct,8,BC,intermixed,6,incorrect,3387
10,3b,explicit_direct,9,BC,blocked,3,correct,2417
10,3b,explicit_direct,10,BC,intermixed,4,correct,2295
10,3b,explicit_direct,11,AB,blocked,1,correct,2591
10,3b,explicit_direct,12,AB,intermixed,6,incorrect,2306
10,3b,explicit_direct,13,AB,intermixed,4,correct,2183
10,3b,explicit_direct,14,AB,blocked,3,correct,2463
10,3b,explicit_direct,15,AB,intermixed,6,correct,2861
10,3b,explicit_direct,16,AB,blocked,3,correct,3095
10,3b,explicit_direct,17,BC,blocked,2,correct,2867
10,3b,explicit_direct,18,BC,intermixed,6,incorrect,3579
10,3b,explicit_direct,19,BC,intermixed,5,correct,4428
10,3b,explicit_direct,20,AB,intermixed,4,incorrect,3277
10,3b,explicit_direct,21,BC,blocked,1,incorrect,2274
10,3b,explicit_direct,22,BC,blocked,2,incorrect,2142
10,3b,explicit_direct,23,BC,blocked,3,correct,3470
10,3b,explicit_direct,24,AB,blocked,2,correct,3461
11,3b,speeded_recognition,1,AB,blocked,1,correct,1605
11,3b,speeded_recognition,2,BC,intermixed,5,correct,1163
11,3b,speeded_recognition,3,foil,blocked,N/A,correct,1314
11,3b,speeded_recognition,4,AB,blocked,2,correct,1790
11,3b,speeded_recognition,5,BC,intermixed,6,correct,1586
11,3b,speeded_recognition,6,foil,intermixed,N/A,incorrect,1207
11,3b,speeded_recognition,7,BC,intermixed,4,correct,1173
11,3b,speeded_recognition,8,BC,blocked,2,correct,1086
11,3b,speeded_recognition,9,AB,intermixed,6,correct,1324
11,3b,speeded_recognition,10,BC,blocked,3,correct,1362
11,3b,speeded_recognition,11,AB,intermixed,5,incorrect,1370
11,3b,speeded_recognition,12,AC,blocked,2,incorrect,2006
11,3b,speeded_recognition,13,AC,intermixed,5,correct,1532
11,3b,speeded_recognition,14,AC,blocked,3,correct,1264
11,3b,speeded_recognition,15,BC,intermixed,5,correct,1511
11,3b,speeded_recognition,16,foil,intermixed,N/A,incorrect,2979
11,3b,speeded_recognition,17,AC,blocked,1,correct,2072
11,3b,speeded_recognition,18,foil,intermixed,N/A,incorrect,1812
11,3b,speeded_recognition,19,AC,intermixed,4,incorrect,1524
11,3b,speeded_recognition,20,AB,blocked,1,correct,2736
11,3b,speeded_recognition,21,foil,intermixed,N/A,incorrect,1673
11,3b,speeded_recognition,22,BC,intermixed,4,correct,1840
11,3b,speeded_recognition,23,foil,intermixed,N/A,correct,2825
11,3b,speeded_recognition,24,AB,blocked,2,correct,1100
11,3b,speeded_recognition,25,AC,intermixed,6,incorrect,1386
11,3b,speeded_recognition,26,BC,blocked,1,incorrect,1059
11,3b,speeded_recognition,27,AC,intermixed,4,incorrect,1059
11,3b,speeded_recognition,28,BC,blocked,3,incorrect,1420
11,3b,speeded_recognition,29,AB,intermixed,4,correct,2923
11,3b,speeded_recognition,30,foil,intermixed,N/A,correct,1329
11,3b,speeded_recognition,31,AB,blocked,3,correct,1266
11,3b,speeded_recognition,32,AC,intermixed,6,incorrect,1259
11,3b,speeded_recognition,33,AC,blocked,3,correct,1047
11,3b,speeded_recognition,34,AB,intermixed,5,correct,1857
11,3b,speeded_recognition,35,foil,blocked,N/A,correct,1703
11,3b,speeded_recognition,36,foil,blocked,N/A,correct,1570
11,3b,speeded_recognition,37,AB,blocked,3,correct,1303
11,3b,speeded_recognition,38,foil,blocked,N/A,incorrect,1793
11,3b,speeded_recognition,39,BC,blocked,2,correct,3195
11,3b,speeded_recognition,40,AB,intermixed,4,correct,1400
11,3b,speeded_recognition,41,AC,blocked,2,correct,1839
11,3b,speeded_recognition,42,BC,intermixed,6,correct,1082
11,3b,speeded_recognition,43,BC,blocked,1,incorrect,2072
11,3b,speeded_recognition,44,AC,intermixed,5,incorrect,3152
11,3b,speeded_recognition,45,AC,blocked,1,correct,1975
11,3b,speeded_recognition,46,foil,blocked,N/A,incorrect,1245
11,3b,speeded_recognition,47,AB,intermixed,6,correct,1359
11,3b,speeded_recognition,48,foil,blocked,N/A,correct,1372
11,3b,explicit_inference,1,AC,intermixed,6,incorrect,5080
11,3b,explicit_inference,2,AC,blocked,1,incorrect,3250
11,3b,explicit_inference,3,AC,intermixed,5,correct,7174
11,3b,explicit_inference,4,AC,blocked,2,correct,3119
11,3b,explicit_inference,5,AC,intermixed,6,correct,2037
11,3b,explicit_inference,6,AC,blocked,1,correct,4604
11,3b,explicit_inference,7,AC,intermixed,4,correct,1788
11,3b,explicit_inference,8,AC,blocked,3,incorrect,3710
11,3b,explicit_inference,9,AC,intermixed,4,incorrect,6133
11,3b,explicit_inference,10,AC,intermixed,5,correct,1977
11,3b,explicit_inference,11,AC,blocked,2,correct,2313
11,3b,explicit_inference,12,AC,blocked,3,incorrect,1879
11,3b,explicit_direct,1,BC,intermixed,6,correct,2561
11,3b,explicit_direct,2,BC,blocked,3,incorrect,6756
11,3b,explicit_direct,3,BC,intermixed,4,correct,1626
11,3b,explicit_direct,4,AB,blocked,3,correct,1509
11,3b,explicit_direct,5,AB,intermixed,6,correct,1551
11,3b,explicit_direct,6,AB,blocked,1,correct,3300
11,3b,explicit_direct,7,AB,intermixed,5,correct,1501
11,3b,explicit_direct,8,AB,intermixed,4,correct,1285
11,3b,explicit_direct,9,AB,blocked,3,correct,2218
11,3b,explicit_direct,10,AB,blocked,1,correct,2503
11,3b,explicit_direct,11,BC,blocked,2,correct,1502
11,3b,explicit_direct,12,AB,intermixed,4,correct,1601
11,3b,explicit_direct,13,AB,blocked,2,correct,2477
11,3b,explicit_direct,14,BC,blocked,1,correct,2550
11,3b,explicit_direct,15,BC,intermixed,5,correct,2045
11,3b,explicit_direct,16,BC,intermixed,6,incorrect,1303
11,3b,explicit_direct,17,BC,blocked,1,correct,1986
11,3b,explicit_direct,18,BC,intermixed,4,correct,1452
11,3b,explicit_direct,19,AB,intermixed,5,correct,1261
11,3b,explicit_direct,20,AB,blocked,2,correct,1264
11,3b,explicit_direct,21,BC,intermixed,5,correct,1853
11,3b,explicit_direct,22,BC,blocked,3,correct,2346
11,3b,explicit_direct,23,BC,blocked,2,correct,2736
11,3b,explicit_direct,24,AB,intermixed,6,correct,1936
12,3b,speeded_recognition,1,AB,intermixed,4,correct,765
12,3b,speeded_recognition,2,BC,blocked,1,correct,1298
12,3b,speeded_recognition,3,AC,intermixed,4,correct,935
12,3b,speeded_recognition,4,AC,blocked,3,incorrect,656
12,3b,speeded_recognition,5,AC,intermixed,6,correct,922
12,3b,speeded_recognition,6,AC,blocked,3,incorrect,674
12,3b,speeded_recognition,7,AB,intermixed,5,correct,1255
12,3b,speeded_recognition,8,foil,intermixed,N/A,correct,1212
12,3b,speeded_recognition,9,AB,blocked,1,correct,1305
12,3b,speeded_recognition,10,AB,intermixed,6,correct,947
12,3b,speeded_recognition,11,AC,blocked,2,correct,944
12,3b,speeded_recognition,12,AB,intermixed,4,correct,918
12,3b,speeded_recognition,13,foil,intermixed,N/A,incorrect,1070
12,3b,speeded_recognition,14,BC,blocked,3,incorrect,1039
12,3b,speeded_recognition,15,BC,intermixed,5,correct,1202
12,3b,speeded_recognition,16,foil,blocked,N/A,incorrect,919
12,3b,speeded_recognition,17,BC,blocked,3,incorrect,915
12,3b,speeded_recognition,18,AB,intermixed,5,incorrect,1131
12,3b,speeded_recognition,19,foil,blocked,N/A,correct,865
12,3b,speeded_recognition,20,AC,intermixed,6,incorrect,1079
12,3b,speeded_recognition,21,AB,blocked,1,correct,1194
12,3b,speeded_recognition,22,foil,intermixed,N/A,correct,930
12,3b,speeded_recognition,23,AB,blocked,3,incorrect,956
12,3b,speeded_recognition,24,BC,intermixed,6,correct,667
12,3b,speeded_recognition,25,AC,blocked,2,correct,837
12,3b,speeded_recognition,26,foil,intermixed,N/A,incorrect,999
12,3b,speeded_recognition,27,AB,blocked,3,incorrect,983
12,3b,speeded_recognition,28,BC,intermixed,5,correct,821
12,3b,speeded_recognition,29,BC,blocked,2,correct,962
12,3b,speeded_recognition,30,AB,intermixed,6,correct,949
12,3b,speeded_recognition,31,foil,blocked,N/A,correct,853
12,3b,speeded_recognition,32,AB,blocked,2,correct,852
12,3b,speeded_recognition,33,AC,intermixed,5,incorrect,678
12,3b,speeded_recognition,34,BC,blocked,1,correct,1332
12,3b,speeded_recognition,35,AC,intermixed,5,correct,823
12,3b,speeded_recognition,36,foil,blocked,N/A,incorrect,779
12,3b,speeded_recognition,37,AC,blocked,1,incorrect,796
12,3b,speeded_recognition,38,foil,intermixed,N/A,incorrect,989
12,3b,speeded_recognition,39,BC,intermixed,4,correct,1832
12,3b,speeded_recognition,40,foil,blocked,N/A,incorrect,1110
12,3b,speeded_recognition,41,BC,intermixed,6,correct,1092
12,3b,speeded_recognition,42,AB,blocked,2,correct,1131
12,3b,speeded_recognition,43,AC,intermixed,4,correct,958
12,3b,speeded_recognition,44,foil,intermixed,N/A,incorrect,1190
12,3b,speeded_recognition,45,foil,blocked,N/A,incorrect,1188
12,3b,speeded_recognition,46,AC,blocked,1,correct,818
12,3b,speeded_recognition,47,BC,intermixed,4,correct,835
12,3b,speeded_recognition,48,BC,blocked,2,correct,1047
12,3b,explicit_inference,1,AC,blocked,3,correct,3947
12,3b,explicit_inference,2,AC,intermixed,4,correct,2374
12,3b,explicit_inference,3,AC,intermixed,6,correct,1710
12,3b,explicit_inference,4,AC,intermixed,4,incorrect,2416
12,3b,explicit_inference,5,AC,blocked,1,incorrect,1711
12,3b,explicit_inference,6,AC,intermixed,5,correct,1845
12,3b,explicit_inference,7,AC,blocked,2,incorrect,2699
12,3b,explicit_inference,8,AC,blocked,1,incorrect,2907
12,3b,explicit_inference,9,AC,blocked,2,incorrect,2664
12,3b,explicit_inference,10,AC,intermixed,6,correct,3008
12,3b,explicit_inference,11,AC,intermixed,5,incorrect,2785
12,3b,explicit_inference,12,AC,blocked,3,incorrect,2611
12,3b,explicit_direct,1,AB,intermixed,6,incorrect,3008
12,3b,explicit_direct,2,AB,intermixed,4,incorrect,2303
12,3b,explicit_direct,3,AB,blocked,1,incorrect,2441
12,3b,explicit_direct,4,BC,intermixed,6,correct,1883
12,3b,explicit_direct,5,BC,blocked,3,correct,3693
12,3b,explicit_direct,6,AB,blocked,1,correct,2817
12,3b,explicit_direct,7,BC,intermixed,5,correct,2080
12,3b,explicit_direct,8,AB,intermixed,6,correct,1727
12,3b,explicit_direct,9,AB,blocked,2,correct,2592
12,3b,explicit_direct,10,BC,intermixed,4,correct,1796
12,3b,explicit_direct,11,BC,blocked,1,incorrect,2086
12,3b,explicit_direct,12,BC,blocked,2,correct,2159
12,3b,explicit_direct,13,AB,intermixed,5,correct,1859
12,3b,explicit_direct,14,BC,intermixed,6,correct,1663
12,3b,explicit_direct,15,BC,intermixed,4,correct,2992
12,3b,explicit_direct,16,BC,intermixed,5,incorrect,2462
12,3b,explicit_direct,17,BC,blocked,1,incorrect,2167
12,3b,explicit_direct,18,AB,blocked,3,incorrect,2026
12,3b,explicit_direct,19,BC,blocked,2,correct,1636
12,3b,explicit_direct,20,AB,blocked,3,correct,2231
12,3b,explicit_direct,21,AB,blocked,2,incorrect,3143
12,3b,explicit_direct,22,AB,intermixed,5,correct,2646
12,3b,explicit_direct,23,AB,intermixed,4,correct,2003
12,3b,explicit_direct,24,BC,blocked,3,correct,2163
13,3b,speeded_recognition,1,AC,blocked,2,incorrect,1204
13,3b,speeded_recognition,2,foil,blocked,N/A,correct,974
13,3b,speeded_recognition,3,AB,intermixed,6,correct,1002
13,3b,speeded_recognition,4,BC,blocked,1,correct,1136
13,3b,speeded_recognition,5,AC,intermixed,6,correct,870
13,3b,speeded_recognition,6,foil,blocked,N/A,incorrect,1060
13,3b,speeded_recognition,7,AB,blocked,2,correct,1358
13,3b,speeded_recognition,8,AC,intermixed,5,correct,1190
13,3b,speeded_recognition,9,AC,blocked,3,correct,1161
13,3b,speeded_recognition,10,AB,intermixed,5,correct,822
13,3b,speeded_recognition,11,AC,blocked,3,correct,1085
13,3b,speeded_recognition,12,BC,intermixed,5,correct,1423
13,3b,speeded_recognition,13,foil,intermixed,N/A,correct,1709
13,3b,speeded_recognition,14,AC,blocked,1,correct,1173
13,3b,speeded_recognition,15,BC,intermixed,4,correct,764
13,3b,speeded_recognition,16,foil,blocked,N/A,correct,988
13,3b,speeded_recognition,17,AB,blocked,1,incorrect,991
13,3b,speeded_recognition,18,foil,intermixed,N/A,correct,1164
13,3b,speeded_recognition,19,BC,intermixed,6,correct,1046
13,3b,speeded_recognition,20,BC,blocked,1,correct,956
13,3b,speeded_recognition,21,AC,intermixed,6,correct,1140
13,3b,speeded_recognition,22,BC,blocked,3,correct,1262
13,3b,speeded_recognition,23,AB,intermixed,6,incorrect,1106
13,3b,speeded_recognition,24,foil,blocked,N/A,correct,1148
13,3b,speeded_recognition,25,AB,blocked,1,incorrect,1346
13,3b,speeded_recognition,26,foil,blocked,N/A,correct,1592
13,3b,speeded_recognition,27,BC,intermixed,5,correct,912
13,3b,speeded_recognition,28,foil,intermixed,N/A,correct,1254
13,3b,speeded_recognition,29,BC,blocked,2,correct,746
13,3b,speeded_recognition,30,AC,intermixed,4,correct,1208
13,3b,speeded_recognition,31,AB,blocked,3,correct,1086
13,3b,speeded_recognition,32,AC,intermixed,4,correct,902
13,3b,speeded_recognition,33,AB,blocked,3,correct,922
13,3b,speeded_recognition,34,AB,intermixed,4,correct,893
13,3b,speeded_recognition,35,foil,intermixed,N/A,correct,913
13,3b,speeded_recognition,36,AC,blocked,1,correct,1454
13,3b,speeded_recognition,37,AB,intermixed,4,correct,1150
13,3b,speeded_recognition,38,BC,blocked,3,correct,1310
13,3b,speeded_recognition,39,foil,blocked,N/A,correct,1002
13,3b,speeded_recognition,40,AC,intermixed,5,correct,1094
13,3b,speeded_recognition,41,AC,blocked,2,correct,1180
13,3b,speeded_recognition,42,AB,intermixed,5,correct,806
13,3b,speeded_recognition,43,foil,intermixed,N/A,correct,1044
13,3b,speeded_recognition,44,AB,blocked,2,correct,868
13,3b,speeded_recognition,45,BC,intermixed,6,correct,902
13,3b,speeded_recognition,46,foil,intermixed,N/A,correct,1190
13,3b,speeded_recognition,47,BC,intermixed,4,correct,926
13,3b,speeded_recognition,48,BC,blocked,2,correct,862
13,3b,explicit_inference,1,AC,blocked,2,incorrect,4540
13,3b,explicit_inference,2,AC,blocked,1,correct,3288
13,3b,explicit_inference,3,AC,intermixed,6,incorrect,2356
13,3b,explicit_inference,4,AC,blocked,1,incorrect,2798
13,3b,explicit_inference,5,AC,intermixed,5,correct,1543
13,3b,explicit_inference,6,AC,blocked,3,incorrect,1789
13,3b,explicit_inference,7,AC,intermixed,4,incorrect,2654
13,3b,explicit_inference,8,AC,intermixed,6,incorrect,1679
13,3b,explicit_inference,9,AC,intermixed,5,correct,2071
13,3b,explicit_inference,10,AC,intermixed,4,incorrect,2215
13,3b,explicit_inference,11,AC,blocked,3,correct,2471
13,3b,explicit_inference,12,AC,blocked,2,incorrect,3300
13,3b,explicit_direct,1,BC,intermixed,5,correct,1758
13,3b,explicit_direct,2,AB,blocked,2,correct,1614
13,3b,explicit_direct,3,AB,intermixed,4,correct,1149
13,3b,explicit_direct,4,BC,blocked,2,correct,1318
13,3b,explicit_direct,5,BC,intermixed,6,correct,1228
13,3b,explicit_direct,6,BC,intermixed,5,correct,1701
13,3b,explicit_direct,7,BC,intermixed,4,correct,1494
13,3b,explicit_direct,8,AB,intermixed,5,correct,1655
13,3b,explicit_direct,9,AB,blocked,3,correct,1924
13,3b,explicit_direct,10,BC,blocked,1,correct,1283
13,3b,explicit_direct,11,AB,blocked,3,incorrect,2158
13,3b,explicit_direct,12,AB,blocked,1,correct,1823
13,3b,explicit_direct,13,BC,blocked,3,correct,1932
13,3b,explicit_direct,14,BC,intermixed,4,correct,1031
13,3b,explicit_direct,15,BC,blocked,1,correct,1223
13,3b,explicit_direct,16,AB,intermixed,6,incorrect,1236
13,3b,explicit_direct,17,AB,intermixed,5,correct,1399
13,3b,explicit_direct,18,BC,blocked,3,correct,1765
13,3b,explicit_direct,19,BC,blocked,2,correct,1207
13,3b,explicit_direct,20,AB,blocked,1,correct,2686
13,3b,explicit_direct,21,AB,intermixed,4,correct,1654
13,3b,explicit_direct,22,AB,intermixed,6,incorrect,1749
13,3b,explicit_direct,23,AB,blocked,2,correct,1357
13,3b,explicit_direct,24,BC,intermixed,6,correct,1445
14,3b,speeded_recognition,1,AB,blocked,2,correct,1269
14,3b,speeded_recognition,2,BC,intermixed,4,incorrect,941
14,3b,speeded_recognition,3,foil,blocked,N/A,correct,1234
14,3b,speeded_recognition,4,AB,blocked,3,correct,969
14,3b,speeded_recognition,5,BC,intermixed,4,correct,1410
14,3b,speeded_recognition,6,AC,blocked,3,correct,1110
14,3b,speeded_recognition,7,BC,intermixed,6,correct,1203
14,3b,speeded_recognition,8,AB,blocked,1,correct,1171
14,3b,speeded_recognition,9,AC,intermixed,5,incorrect,1145
14,3b,speeded_recognition,10,BC,blocked,2,correct,1002
14,3b,speeded_recognition,11,BC,intermixed,5,incorrect,1148
14,3b,speeded_recognition,12,AC,blocked,1,correct,1418
14,3b,speeded_recognition,13,BC,intermixed,5,correct,1788
14,3b,speeded_recognition,14,AC,blocked,1,correct,1578
14,3b,speeded_recognition,15,AB,intermixed,6,incorrect,1281
14,3b,speeded_recognition,16,AB,blocked,1,correct,1045
14,3b,speeded_recognition,17,AB,intermixed,4,correct,1002
14,3b,speeded_recognition,18,AC,blocked,2,correct,898
14,3b,speeded_recognition,19,AB,intermixed,5,correct,800
14,3b,speeded_recognition,20,BC,blocked,1,incorrect,808
14,3b,speeded_recognition,21,foil,blocked,N/A,correct,975
14,3b,speeded_recognition,22,AC,intermixed,6,incorrect,1488
14,3b,speeded_recognition,23,foil,blocked,N/A,correct,1575
14,3b,speeded_recognition,24,BC,blocked,3,correct,942
14,3b,speeded_recognition,25,BC,intermixed,6,correct,1013
14,3b,speeded_recognition,26,AC,blocked,2,correct,1293
14,3b,speeded_recognition,27,AC,intermixed,4,incorrect,711
14,3b,speeded_recognition,28,BC,blocked,1,incorrect,967
14,3b,speeded_recognition,29,AC,intermixed,6,correct,1076
14,3b,speeded_recognition,30,foil,blocked,N/A,correct,1254
14,3b,speeded_recognition,31,AC,intermixed,5,incorrect,2356
14,3b,speeded_recognition,32,BC,blocked,3,correct,1140
14,3b,speeded_recognition,33,AB,intermixed,6,incorrect,1348
14,3b,speeded_recognition,34,foil,intermixed,N/A,incorrect,1215
14,3b,speeded_recognition,35,AB,blocked,3,correct,1150
14,3b,speeded_recognition,36,foil,intermixed,N/A,incorrect,1000
14,3b,speeded_recognition,37,AC,intermixed,4,incorrect,839
14,3b,speeded_recognition,38,foil,blocked,N/A,correct,1145
14,3b,speeded_recognition,39,foil,intermixed,N/A,incorrect,862
14,3b,speeded_recognition,40,foil,blocked,N/A,incorrect,1134
14,3b,speeded_recognition,41,foil,intermixed,N/A,correct,1037
14,3b,speeded_recognition,42,AB,blocked,2,incorrect,1281
14,3b,speeded_recognition,43,AB,intermixed,4,correct,863
14,3b,speeded_recognition,44,foil,intermixed,N/A,incorrect,936
14,3b,speeded_recognition,45,AC,blocked,3,correct,939
14,3b,speeded_recognition,46,AB,intermixed,5,correct,1151
14,3b,speeded_recognition,47,foil,intermixed,N/A,correct,1655
14,3b,speeded_recognition,48,BC,blocked,2,correct,796
14,3b,explicit_inference,1,AC,blocked,2,incorrect,4567
14,3b,explicit_inference,2,AC,intermixed,4,correct,1456
14,3b,explicit_inference,3,AC,blocked,3,correct,1907
14,3b,explicit_inference,4,AC,blocked,2,incorrect,3383
14,3b,explicit_inference,5,AC,intermixed,5,correct,2092
14,3b,explicit_inference,6,AC,intermixed,6,correct,2097
14,3b,explicit_inference,7,AC,blocked,1,incorrect,1800
14,3b,explicit_inference,8,AC,intermixed,5,incorrect,1140
14,3b,explicit_inference,9,AC,blocked,3,correct,2071
14,3b,explicit_inference,10,AC,intermixed,4,correct,1446
14,3b,explicit_inference,11,AC,blocked,1,incorrect,3211
14,3b,explicit_inference,12,AC,intermixed,6,correct,1750
14,3b,explicit_direct,1,AB,intermixed,4,correct,1874
14,3b,explicit_direct,2,BC,intermixed,5,correct,3525
14,3b,explicit_direct,3,AB,blocked,1,correct,1633
14,3b,explicit_direct,4,BC,intermixed,5,correct,1981
14,3b,explicit_direct,5,AB,intermixed,6,incorrect,4900
14,3b,explicit_direct,6,BC,blocked,3,correct,1449
14,3b,explicit_direct,7,BC,intermixed,6,correct,1722
14,3b,explicit_direct,8,BC,blocked,2,correct,2212
14,3b,explicit_direct,9,BC,blocked,1,correct,1715
14,3b,explicit_direct,10,AB,blocked,2,incorrect,2152
14,3b,explicit_direct,11,AB,blocked,1,correct,1900
14,3b,explicit_direct,12,AB,intermixed,5,correct,2098
14,3b,explicit_direct,13,AB,blocked,2,correct,2298
14,3b,explicit_direct,14,BC,intermixed,4,correct,1119
14,3b,explicit_direct,15,AB,intermixed,6,correct,2080
14,3b,explicit_direct,16,BC,blocked,2,correct,1839
14,3b,explicit_direct,17,AB,intermixed,5,correct,1533
14,3b,explicit_direct,18,BC,intermixed,6,incorrect,2454
14,3b,explicit_direct,19,AB,blocked,3,incorrect,2501
14,3b,explicit_direct,20,BC,intermixed,4,correct,1779
14,3b,explicit_direct,21,BC,blocked,1,correct,1311
14,3b,explicit_direct,22,AB,blocked,3,correct,2904
14,3b,explicit_direct,23,AB,intermixed,4,correct,1933
14,3b,explicit_direct,24,BC,blocked,3,correct,1301
15,3b,speeded_recognition,1,BC,intermixed,4,correct,1102
15,3b,speeded_recognition,2,AC,blocked,2,correct,893
15,3b,speeded_recognition,3,foil,intermixed,N/A,correct,1758
15,3b,speeded_recognition,4,BC,blocked,2,incorrect,1125
15,3b,speeded_recognition,5,AB,intermixed,5,correct,1054
15,3b,speeded_recognition,6,foil,blocked,N/A,incorrect,1102
15,3b,speeded_recognition,7,AB,blocked,1,correct,1113
15,3b,speeded_recognition,8,BC,intermixed,5,correct,776
15,3b,speeded_recognition,9,foil,intermixed,N/A,incorrect,1135
15,3b,speeded_recognition,10,BC,blocked,1,correct,1165
15,3b,speeded_recognition,11,BC,intermixed,6,correct,977
15,3b,speeded_recognition,12,foil,intermixed,N/A,correct,872
15,3b,speeded_recognition,13,BC,blocked,3,correct,1088
15,3b,speeded_recognition,14,AB,intermixed,5,correct,1049
15,3b,speeded_recognition,15,AB,blocked,1,correct,1398
15,3b,speeded_recognition,16,BC,intermixed,5,incorrect,878
15,3b,speeded_recognition,17,foil,intermixed,N/A,incorrect,1038
15,3b,speeded_recognition,18,AC,blocked,3,correct,1111
15,3b,speeded_recognition,19,foil,blocked,N/A,correct,1367
15,3b,speeded_recognition,20,AB,intermixed,6,correct,1087
15,3b,speeded_recognition,21,foil,blocked,N/A,correct,1214
15,3b,speeded_recognition,22,BC,blocked,1,correct,1432
15,3b,speeded_recognition,23,AC,intermixed,5,incorrect,1167
15,3b,speeded_recognition,24,AC,blocked,2,correct,1118
15,3b,speeded_recognition,25,foil,blocked,N/A,correct,1109
15,3b,speeded_recognition,26,AC,intermixed,5,incorrect,1009
15,3b,speeded_recognition,27,foil,blocked,N/A,incorrect,1169
15,3b,speeded_recognition,28,AB,blocked,3,incorrect,975
15,3b,speeded_recognition,29,AC,intermixed,4,correct,1072
15,3b,speeded_recognition,30,AB,blocked,2,correct,999
15,3b,speeded_recognition,31,AC,intermixed,6,incorrect,790
15,3b,speeded_recognition,32,BC,blocked,3,incorrect,1045
15,3b,speeded_recognition,33,AC,intermixed,4,correct,1319
15,3b,speeded_recognition,34,AC,blocked,1,incorrect,1247
15,3b,speeded_recognition,35,AB,intermixed,4,correct,797
15,3b,speeded_recognition,36,AC,blocked,1,correct,1102
15,3b,speeded_recognition,37,AC,intermixed,6,incorrect,861
15,3b,speeded_recognition,38,AC,blocked,3,correct,966
15,3b,speeded_recognition,39,foil,intermixed,N/A,incorrect,977
15,3b,speeded_recognition,40,AB,intermixed,6,correct,902
15,3b,speeded_recognition,41,AB,blocked,3,incorrect,959
15,3b,speeded_recognition,42,BC,intermixed,6,correct,677
15,3b,speeded_recognition,43,BC,blocked,2,correct,871
15,3b,speeded_recognition,44,foil,blocked,N/A,incorrect,910
15,3b,speeded_recognition,45,AB,intermixed,4,incorrect,1102
15,3b,speeded_recognition,46,AB,blocked,2,correct,1094
15,3b,speeded_recognition,47,foil,intermixed,N/A,correct,1239
15,3b,speeded_recognition,48,BC,intermixed,4,incorrect,1190
15,3b,explicit_inference,1,AC,intermixed,4,incorrect,7461
15,3b,explicit_inference,2,AC,blocked,1,incorrect,2189
15,3b,explicit_inference,3,AC,blocked,3,correct,3741
15,3b,explicit_inference,4,AC,blocked,2,correct,2423
15,3b,explicit_inference,5,AC,intermixed,5,incorrect,1948
15,3b,explicit_inference,6,AC,intermixed,6,incorrect,2765
15,3b,explicit_inference,7,AC,intermixed,5,correct,2732
15,3b,explicit_inference,8,AC,blocked,2,correct,1325
15,3b,explicit_inference,9,AC,intermixed,4,correct,3036
15,3b,explicit_inference,10,AC,intermixed,6,correct,3062
15,3b,explicit_inference,11,AC,blocked,3,correct,2191
15,3b,explicit_inference,12,AC,blocked,1,incorrect,5005
15,3b,explicit_direct,1,BC,blocked,1,incorrect,2384
15,3b,explicit_direct,2,AB,blocked,2,incorrect,3669
15,3b,explicit_direct,3,AB,blocked,3,incorrect,2742
15,3b,explicit_direct,4,AB,intermixed,5,correct,3029
15,3b,explicit_direct,5,AB,blocked,1,correct,2113
15,3b,explicit_direct,6,AB,intermixed,4,incorrect,3275
15,3b,explicit_direct,7,AB,blocked,2,incorrect,2484
15,3b,explicit_direct,8,BC,intermixed,5,incorrect,1724
15,3b,explicit_direct,9,BC,blocked,1,correct,2180
15,3b,explicit_direct,10,AB,blocked,3,incorrect,2037
15,3b,explicit_direct,11,AB,blocked,1,incorrect,1623
15,3b,explicit_direct,12,BC,blocked,2,incorrect,2014
15,3b,explicit_direct,13,BC,intermixed,4,correct,2381
15,3b,explicit_direct,14,BC,blocked,3,correct,2158
15,3b,explicit_direct,15,AB,intermixed,5,correct,1575
15,3b,explicit_direct,16,BC,blocked,2,incorrect,3067
15,3b,explicit_direct,17,BC,blocked,3,correct,2510
15,3b,explicit_direct,18,AB,intermixed,6,correct,3487
15,3b,explicit_direct,19,BC,intermixed,4,incorrect,3302
15,3b,explicit_direct,20,BC,intermixed,6,incorrect,3054
15,3b,explicit_direct,21,AB,intermixed,4,correct,2549
15,3b,explicit_direct,22,AB,intermixed,6,correct,2126
15,3b,explicit_direct,23,BC,intermixed,5,incorrect,4861
15,3b,explicit_direct,24,BC,intermixed,6,correct,4299
16,3b,speeded_recognition,1,AB,blocked,3,correct,868
16,3b,speeded_recognition,2,AC,intermixed,6,correct,1563
16,3b,speeded_recognition,3,AC,blocked,1,correct,1242
16,3b,speeded_recognition,4,AC,intermixed,6,incorrect,1628
16,3b,speeded_recognition,5,AB,blocked,1,incorrect,1141
16,3b,speeded_recognition,6,AB,intermixed,6,correct,1550
16,3b,speeded_recognition,7,BC,blocked,3,correct,1177
16,3b,speeded_recognition,8,BC,intermixed,6,incorrect,2123
16,3b,speeded_recognition,9,AB,blocked,2,correct,1522
16,3b,speeded_recognition,10,AB,intermixed,6,correct,1710
16,3b,speeded_recognition,11,AB,blocked,2,correct,1544
16,3b,speeded_recognition,12,foil,intermixed,N/A,correct,1492
16,3b,speeded_recognition,13,BC,intermixed,5,incorrect,1821
16,3b,speeded_recognition,14,BC,blocked,1,correct,1684
16,3b,speeded_recognition,15,foil,blocked,N/A,correct,2349
16,3b,speeded_recognition,16,AB,intermixed,5,correct,1280
16,3b,speeded_recognition,17,AC,blocked,1,correct,1535
16,3b,speeded_recognition,18,foil,intermixed,N/A,correct,1612
16,3b,speeded_recognition,19,BC,intermixed,5,correct,1425
16,3b,speeded_recognition,20,BC,blocked,1,correct,1373
16,3b,speeded_recognition,21,AB,intermixed,5,correct,1633
16,3b,speeded_recognition,22,foil,blocked,N/A,correct,1199
16,3b,speeded_recognition,23,AB,intermixed,4,correct,1335
16,3b,speeded_recognition,24,foil,intermixed,N/A,correct,1485
16,3b,speeded_recognition,25,AB,blocked,3,correct,1187
16,3b,speeded_recognition,26,foil,blocked,N/A,correct,1438
16,3b,speeded_recognition,27,AC,intermixed,4,incorrect,1941
16,3b,speeded_recognition,28,BC,blocked,2,correct,1152
16,3b,speeded_recognition,29,AB,intermixed,4,correct,1431
16,3b,speeded_recognition,30,foil,intermixed,N/A,correct,1045
16,3b,speeded_recognition,31,AC,blocked,3,correct,1519
16,3b,speeded_recognition,32,AC,intermixed,5,incorrect,1406
16,3b,speeded_recognition,33,foil,blocked,N/A,correct,1581
16,3b,speeded_recognition,34,BC,blocked,3,correct,1949
16,3b,speeded_recognition,35,BC,intermixed,4,incorrect,1558
16,3b,speeded_recognition,36,foil,blocked,N/A,correct,1477
16,3b,speeded_recognition,37,AB,blocked,1,incorrect,1338
16,3b,speeded_recognition,38,BC,intermixed,4,incorrect,1162
16,3b,speeded_recognition,39,BC,blocked,2,correct,1277
16,3b,speeded_recognition,40,foil,intermixed,N/A,incorrect,1417
16,3b,speeded_recognition,41,AC,intermixed,4,correct,1212
16,3b,speeded_recognition,42,foil,blocked,N/A,correct,1651
16,3b,speeded_recognition,43,AC,blocked,3,correct,1150
16,3b,speeded_recognition,44,AC,intermixed,5,incorrect,1547
16,3b,speeded_recognition,45,foil,intermixed,N/A,incorrect,1377
16,3b,speeded_recognition,46,AC,blocked,2,correct,1269
16,3b,speeded_recognition,47,BC,intermixed,6,correct,1481
16,3b,speeded_recognition,48,AC,blocked,2,correct,1102
16,3b,explicit_inference,1,AC,intermixed,4,N/A,N/A
16,3b,explicit_inference,2,AC,blocked,2,N/A,N/A
16,3b,explicit_inference,3,AC,intermixed,4,N/A,N/A
16,3b,explicit_inference,4,AC,blocked,3,N/A,N/A
16,3b,explicit_inference,5,AC,blocked,2,N/A,N/A
16,3b,explicit_inference,6,AC,blocked,3,N/A,N/A
16,3b,explicit_inference,7,AC,intermixed,5,N/A,N/A
16,3b,explicit_inference,8,AC,blocked,1,N/A,N/A
16,3b,explicit_inference,9,AC,intermixed,6,N/A,N/A
16,3b,explicit_inference,10,AC,blocked,1,N/A,N/A
16,3b,explicit_inference,11,AC,intermixed,5,N/A,N/A
16,3b,explicit_inference,12,AC,intermixed,6,N/A,N/A
16,3b,explicit_direct,1,AB,blocked,2,N/A,N/A
16,3b,explicit_direct,2,AB,intermixed,5,N/A,N/A
16,3b,explicit_direct,3,AB,blocked,2,N/A,N/A
16,3b,explicit_direct,4,AB,intermixed,4,N/A,N/A
16,3b,explicit_direct,5,AB,intermixed,5,N/A,N/A
16,3b,explicit_direct,6,AB,intermixed,6,N/A,N/A
16,3b,explicit_direct,7,AB,intermixed,5,N/A,N/A
16,3b,explicit_direct,8,AB,intermixed,4,N/A,N/A
16,3b,explicit_direct,9,AB,blocked,1,N/A,N/A
16,3b,explicit_direct,10,AB,intermixed,6,N/A,N/A
16,3b,explicit_direct,11,AB,intermixed,4,N/A,N/A
16,3b,explicit_direct,12,AB,blocked,1,N/A,N/A
16,3b,explicit_direct,13,AB,intermixed,6,N/A,N/A
16,3b,explicit_direct,14,AB,blocked,3,N/A,N/A
16,3b,explicit_direct,15,AB,intermixed,4,N/A,N/A
16,3b,explicit_direct,16,AB,blocked,3,N/A,N/A
16,3b,explicit_direct,17,AB,blocked,2,N/A,N/A
16,3b,explicit_direct,18,AB,blocked,1,N/A,N/A
16,3b,explicit_direct,19,AB,intermixed,5,N/A,N/A
16,3b,explicit_direct,20,AB,blocked,1,N/A,N/A
16,3b,explicit_direct,21,AB,blocked,3,N/A,N/A
16,3b,explicit_direct,22,AB,blocked,2,N/A,N/A
16,3b,explicit_direct,23,AB,blocked,3,N/A,N/A
16,3b,explicit_direct,24,AB,intermixed,6,N/A,N/A
17,3b,speeded_recognition,1,BC,intermixed,5,incorrect,879
17,3b,speeded_recognition,2,AB,blocked,2,correct,1295
17,3b,speeded_recognition,3,AC,intermixed,6,incorrect,1165
17,3b,speeded_recognition,4,AC,blocked,3,incorrect,1087
17,3b,speeded_recognition,5,AC,intermixed,5,correct,780
17,3b,speeded_recognition,6,BC,blocked,1,correct,1282
17,3b,speeded_recognition,7,foil,intermixed,N/A,incorrect,1087
17,3b,speeded_recognition,8,AB,blocked,3,correct,965
17,3b,speeded_recognition,9,foil,intermixed,N/A,incorrect,1442
17,3b,speeded_recognition,10,BC,intermixed,5,correct,1176
17,3b,speeded_recognition,11,BC,blocked,1,correct,901
17,3b,speeded_recognition,12,BC,intermixed,6,correct,1174
17,3b,speeded_recognition,13,BC,blocked,2,correct,1395
17,3b,speeded_recognition,14,BC,intermixed,4,correct,1200
17,3b,speeded_recognition,15,foil,blocked,N/A,correct,1069
17,3b,speeded_recognition,16,BC,intermixed,6,correct,1156
17,3b,speeded_recognition,17,foil,intermixed,N/A,incorrect,943
17,3b,speeded_recognition,18,BC,blocked,3,correct,1413
17,3b,speeded_recognition,19,AB,intermixed,5,incorrect,1290
17,3b,speeded_recognition,20,foil,intermixed,N/A,correct,1336
17,3b,speeded_recognition,21,AB,blocked,3,correct,854
17,3b,speeded_recognition,22,foil,blocked,N/A,incorrect,1074
17,3b,speeded_recognition,23,AC,intermixed,4,correct,2479
17,3b,speeded_recognition,24,AB,blocked,1,correct,796
17,3b,speeded_recognition,25,foil,blocked,N/A,correct,1501
17,3b,speeded_recognition,26,AC,blocked,1,incorrect,1132
17,3b,speeded_recognition,27,AB,intermixed,6,correct,1125
17,3b,speeded_recognition,28,AC,blocked,3,correct,1449
17,3b,speeded_recognition,29,AC,intermixed,4,correct,966
17,3b,speeded_recognition,30,foil,blocked,N/A,correct,1452
17,3b,speeded_recognition,31,AC,blocked,2,incorrect,825
17,3b,speeded_recognition,32,AB,intermixed,6,correct,1416
17,3b,speeded_recognition,33,AB,blocked,1,correct,1138
17,3b,speeded_recognition,34,AB,intermixed,5,incorrect,1308
17,3b,speeded_recognition,35,BC,blocked,2,correct,795
17,3b,speeded_recognition,36,AB,intermixed,4,incorrect,1205
17,3b,speeded_recognition,37,foil,intermixed,N/A,incorrect,1246
17,3b,speeded_recognition,38,AC,blocked,2,correct,1093
17,3b,speeded_recognition,39,AC,intermixed,6,incorrect,740
17,3b,speeded_recognition,40,foil,blocked,N/A,incorrect,1120
17,3b,speeded_recognition,41,BC,blocked,3,correct,1073
17,3b,speeded_recognition,42,foil,intermixed,N/A,correct,1096
17,3b,speeded_recognition,43,BC,intermixed,4,correct,805
17,3b,speeded_recognition,44,AB,blocked,2,correct,933
17,3b,speeded_recognition,45,foil,blocked,N/A,correct,1010
17,3b,speeded_recognition,46,AC,intermixed,5,incorrect,770
17,3b,speeded_recognition,47,AC,blocked,1,correct,882
17,3b,speeded_recognition,48,AB,intermixed,4,correct,671
17,3b,explicit_inference,1,AC,blocked,1,incorrect,2223
17,3b,explicit_inference,2,AC,blocked,3,incorrect,2794
17,3b,explicit_inference,3,AC,intermixed,4,incorrect,2026
17,3b,explicit_inference,4,AC,blocked,3,correct,3761
17,3b,explicit_inference,5,AC,blocked,2,incorrect,2030
17,3b,explicit_inference,6,AC,intermixed,6,correct,1857
17,3b,explicit_inference,7,AC,blocked,2,correct,1975
17,3b,explicit_inference,8,AC,blocked,1,correct,1803
17,3b,explicit_inference,9,AC,intermixed,4,incorrect,1749
17,3b,explicit_inference,10,AC,intermixed,5,correct,2295
17,3b,explicit_inference,11,AC,intermixed,6,incorrect,3013
17,3b,explicit_inference,12,AC,intermixed,5,incorrect,1780
17,3b,explicit_direct,1,AB,blocked,3,incorrect,1959
17,3b,explicit_direct,2,AB,intermixed,4,correct,1600
17,3b,explicit_direct,3,BC,intermixed,6,correct,2189
17,3b,explicit_direct,4,AB,blocked,3,incorrect,2067
17,3b,explicit_direct,5,BC,intermixed,5,correct,1988
17,3b,explicit_direct,6,BC,blocked,2,incorrect,1854
17,3b,explicit_direct,7,AB,intermixed,6,correct,1730
17,3b,explicit_direct,8,AB,intermixed,5,correct,1937
17,3b,explicit_direct,9,AB,blocked,1,correct,1881
17,3b,explicit_direct,10,BC,blocked,3,incorrect,2148
17,3b,explicit_direct,11,AB,intermixed,6,correct,1680
17,3b,explicit_direct,12,AB,blocked,2,incorrect,1300
17,3b,explicit_direct,13,BC,blocked,1,correct,1444
17,3b,explicit_direct,14,BC,intermixed,6,incorrect,2129
17,3b,explicit_direct,15,AB,intermixed,5,incorrect,1968
17,3b,explicit_direct,16,AB,intermixed,4,incorrect,1254
17,3b,explicit_direct,17,BC,blocked,1,correct,1817
17,3b,explicit_direct,18,BC,intermixed,4,correct,1482
17,3b,explicit_direct,19,AB,blocked,2,correct,1852
17,3b,explicit_direct,20,AB,blocked,1,correct,1387
17,3b,explicit_direct,21,BC,blocked,3,correct,1195
17,3b,explicit_direct,22,BC,intermixed,4,correct,2116
17,3b,explicit_direct,23,BC,intermixed,5,correct,2634
17,3b,explicit_direct,24,BC,blocked,2,correct,1493
18,3b,speeded_recognition,1,AC,intermixed,6,correct,1366
18,3b,speeded_recognition,2,BC,blocked,3,correct,1047
18,3b,speeded_recognition,3,foil,intermixed,N/A,incorrect,1146
18,3b,speeded_recognition,4,AC,blocked,1,correct,949
18,3b,speeded_recognition,5,BC,intermixed,4,correct,1020
18,3b,speeded_recognition,6,AB,blocked,1,incorrect,1197
18,3b,speeded_recognition,7,BC,intermixed,6,correct,1493
18,3b,speeded_recognition,8,BC,blocked,1,incorrect,1810
18,3b,speeded_recognition,9,AC,intermixed,4,incorrect,1176
18,3b,speeded_recognition,10,AB,blocked,2,correct,1230
18,3b,speeded_recognition,11,foil,blocked,N/A,correct,927
18,3b,speeded_recognition,12,AC,intermixed,4,incorrect,858
18,3b,speeded_recognition,13,foil,blocked,N/A,correct,1153
18,3b,speeded_recognition,14,AB,intermixed,4,correct,1006
18,3b,speeded_recognition,15,BC,blocked,2,correct,1255
18,3b,speeded_recognition,16,AB,intermixed,6,correct,1045
18,3b,speeded_recognition,17,foil,blocked,N/A,correct,1310
18,3b,speeded_recognition,18,AC,blocked,2,correct,1187
18,3b,speeded_recognition,19,AB,intermixed,5,correct,1438
18,3b,speeded_recognition,20,BC,blocked,2,correct,1069
18,3b,speeded_recognition,21,foil,blocked,N/A,correct,1296
18,3b,speeded_recognition,22,BC,intermixed,5,correct,965
18,3b,speeded_recognition,23,foil,intermixed,N/A,correct,1776
18,3b,speeded_recognition,24,AB,blocked,1,correct,1308
18,3b,speeded_recognition,25,AB,intermixed,4,correct,1061
18,3b,speeded_recognition,26,foil,intermixed,N/A,incorrect,1123
18,3b,speeded_recognition,27,AB,intermixed,5,correct,838
18,3b,speeded_recognition,28,AB,blocked,2,correct,1608
18,3b,speeded_recognition,29,foil,blocked,N/A,correct,1836
18,3b,speeded_recognition,30,BC,intermixed,4,correct,977
18,3b,speeded_recognition,31,AC,blocked,2,correct,1016
18,3b,speeded_recognition,32,AB,intermixed,6,correct,821
18,3b,speeded_recognition,33,BC,blocked,1,correct,1211
18,3b,speeded_recognition,34,AC,intermixed,5,incorrect,1300
18,3b,speeded_recognition,35,BC,blocked,3,correct,796
18,3b,speeded_recognition,36,foil,intermixed,N/A,incorrect,948
18,3b,speeded_recognition,37,AC,blocked,1,correct,1392
18,3b,speeded_recognition,38,BC,intermixed,6,correct,926
18,3b,speeded_recognition,39,AC,blocked,3,correct,939
18,3b,speeded_recognition,40,AC,intermixed,5,incorrect,1107
18,3b,speeded_recognition,41,AB,blocked,3,correct,829
18,3b,speeded_recognition,42,BC,intermixed,5,correct,859
18,3b,speeded_recognition,43,AC,blocked,3,correct,1047
18,3b,speeded_recognition,44,foil,blocked,N/A,correct,1091
18,3b,speeded_recognition,45,foil,intermixed,N/A,incorrect,1148
18,3b,speeded_recognition,46,AB,blocked,3,correct,975
18,3b,speeded_recognition,47,foil,intermixed,N/A,incorrect,826
18,3b,speeded_recognition,48,AC,intermixed,6,incorrect,805
18,3b,explicit_inference,1,AC,intermixed,6,correct,2286
18,3b,explicit_inference,2,AC,blocked,2,correct,5152
18,3b,explicit_inference,3,AC,blocked,1,incorrect,2954
18,3b,explicit_inference,4,AC,blocked,3,correct,1529
18,3b,explicit_inference,5,AC,intermixed,4,correct,1496
18,3b,explicit_inference,6,AC,intermixed,5,correct,1225
18,3b,explicit_inference,7,AC,blocked,1,incorrect,2491
18,3b,explicit_inference,8,AC,blocked,3,correct,2865
18,3b,explicit_inference,9,AC,intermixed,6,correct,1082
18,3b,explicit_inference,10,AC,blocked,2,incorrect,1411
18,3b,explicit_inference,11,AC,intermixed,5,correct,1922
18,3b,explicit_inference,12,AC,intermixed,4,correct,1552
18,3b,explicit_direct,1,AB,intermixed,4,incorrect,4005
18,3b,explicit_direct,2,BC,blocked,3,correct,1740
18,3b,explicit_direct,3,AB,blocked,1,correct,1210
18,3b,explicit_direct,4,BC,intermixed,5,incorrect,1800
18,3b,explicit_direct,5,BC,blocked,1,correct,2131
18,3b,explicit_direct,6,AB,intermixed,4,incorrect,1684
18,3b,explicit_direct,7,AB,intermixed,5,incorrect,2936
18,3b,explicit_direct,8,BC,intermixed,4,correct,1253
18,3b,explicit_direct,9,BC,intermixed,6,correct,1367
18,3b,explicit_direct,10,AB,blocked,3,correct,920
18,3b,explicit_direct,11,BC,intermixed,6,incorrect,2211
18,3b,explicit_direct,12,BC,blocked,2,incorrect,2655
18,3b,explicit_direct,13,AB,intermixed,5,correct,2962
18,3b,explicit_direct,14,AB,blocked,1,correct,1600
18,3b,explicit_direct,15,AB,blocked,3,correct,1233
18,3b,explicit_direct,16,BC,intermixed,4,incorrect,2240
18,3b,explicit_direct,17,AB,intermixed,6,correct,1093
18,3b,explicit_direct,18,AB,blocked,2,correct,1551
18,3b,explicit_direct,19,BC,intermixed,5,correct,1178
18,3b,explicit_direct,20,BC,blocked,2,correct,1872
18,3b,explicit_direct,21,BC,blocked,3,correct,1462
18,3b,explicit_direct,22,BC,blocked,1,correct,1163
18,3b,explicit_direct,23,AB,blocked,2,correct,2446
18,3b,explicit_direct,24,AB,intermixed,6,correct,967
19,3b,speeded_recognition,1,AB,intermixed,4,correct,1750
19,3b,speeded_recognition,2,AB,blocked,3,correct,2095
19,3b,speeded_recognition,3,AC,intermixed,6,incorrect,1749
19,3b,speeded_recognition,4,BC,blocked,2,correct,1530
19,3b,speeded_recognition,5,AC,intermixed,6,incorrect,1659
19,3b,speeded_recognition,6,BC,blocked,3,N/A,N/A
19,3b,speeded_recognition,7,foil,intermixed,N/A,incorrect,2647
19,3b,speeded_recognition,8,AB,blocked,1,correct,1796
19,3b,speeded_recognition,9,BC,intermixed,6,correct,2444
19,3b,speeded_recognition,10,foil,intermixed,N/A,incorrect,2566
19,3b,speeded_recognition,11,AC,blocked,3,incorrect,1664
19,3b,speeded_recognition,12,BC,intermixed,6,correct,1571
19,3b,speeded_recognition,13,foil,blocked,N/A,incorrect,1454
19,3b,speeded_recognition,14,AC,blocked,1,N/A,N/A
19,3b,speeded_recognition,15,BC,intermixed,4,N/A,N/A
19,3b,speeded_recognition,16,foil,intermixed,N/A,N/A,N/A
19,3b,speeded_recognition,17,AC,blocked,3,incorrect,1933
19,3b,speeded_recognition,18,BC,intermixed,5,N/A,N/A
19,3b,speeded_recognition,19,foil,blocked,N/A,incorrect,1527
19,3b,speeded_recognition,20,foil,blocked,N/A,incorrect,1243
19,3b,speeded_recognition,21,AC,intermixed,5,correct,1647
19,3b,speeded_recognition,22,AC,blocked,2,incorrect,2572
19,3b,speeded_recognition,23,BC,intermixed,5,correct,3242
19,3b,speeded_recognition,24,foil,intermixed,N/A,incorrect,2014
19,3b,speeded_recognition,25,BC,blocked,3,correct,1853
19,3b,speeded_recognition,26,foil,blocked,N/A,incorrect,3072
19,3b,speeded_recognition,27,BC,intermixed,4,correct,1327
19,3b,speeded_recognition,28,AB,blocked,1,correct,2166
19,3b,speeded_recognition,29,AB,intermixed,4,correct,1169
19,3b,speeded_recognition,30,foil,blocked,N/A,incorrect,1361
19,3b,speeded_recognition,31,AC,blocked,2,incorrect,1299
19,3b,speeded_recognition,32,AC,intermixed,5,incorrect,1798
19,3b,speeded_recognition,33,foil,intermixed,N/A,incorrect,1801
19,3b,speeded_recognition,34,AB,blocked,2,correct,1889
19,3b,speeded_recognition,35,foil,blocked,N/A,incorrect,1135
19,3b,speeded_recognition,36,AB,intermixed,6,correct,1554
19,3b,speeded_recognition,37,AB,blocked,3,correct,1537
19,3b,speeded_recognition,38,foil,intermixed,N/A,incorrect,1607
19,3b,speeded_recognition,39,AC,intermixed,4,incorrect,1596
19,3b,speeded_recognition,40,BC,blocked,1,correct,1359
19,3b,speeded_recognition,41,AB,intermixed,5,correct,1506
19,3b,speeded_recognition,42,AB,blocked,2,correct,1525
19,3b,speeded_recognition,43,AC,intermixed,4,incorrect,1391
19,3b,speeded_recognition,44,BC,blocked,1,correct,1533
19,3b,speeded_recognition,45,AB,intermixed,6,correct,1326
19,3b,speeded_recognition,46,BC,blocked,2,correct,1567
19,3b,speeded_recognition,47,AB,intermixed,5,correct,1630
19,3b,speeded_recognition,48,AC,blocked,1,incorrect,1221
19,3b,explicit_inference,1,AC,blocked,3,correct,4451
19,3b,explicit_inference,2,AC,intermixed,4,correct,2124
19,3b,explicit_inference,3,AC,intermixed,5,correct,1761
19,3b,explicit_inference,4,AC,blocked,1,incorrect,2332
19,3b,explicit_inference,5,AC,blocked,2,correct,1782
19,3b,explicit_inference,6,AC,intermixed,6,incorrect,2160
19,3b,explicit_inference,7,AC,blocked,1,incorrect,2348
19,3b,explicit_inference,8,AC,intermixed,5,correct,1838
19,3b,explicit_inference,9,AC,intermixed,6,correct,1956
19,3b,explicit_inference,10,AC,blocked,2,incorrect,1165
19,3b,explicit_inference,11,AC,intermixed,4,correct,1633
19,3b,explicit_inference,12,AC,blocked,3,correct,3500
19,3b,explicit_direct,1,BC,blocked,3,correct,2822
19,3b,explicit_direct,2,AB,intermixed,4,incorrect,2485
19,3b,explicit_direct,3,BC,intermixed,5,correct,2638
19,3b,explicit_direct,4,AB,blocked,2,correct,2158
19,3b,explicit_direct,5,BC,intermixed,6,incorrect,1710
19,3b,explicit_direct,6,BC,blocked,2,correct,3001
19,3b,explicit_direct,7,BC,blocked,1,incorrect,2148
19,3b,explicit_direct,8,BC,intermixed,6,correct,1698
19,3b,explicit_direct,9,AB,blocked,1,incorrect,1734
19,3b,explicit_direct,10,BC,intermixed,5,correct,1601
19,3b,explicit_direct,11,BC,blocked,3,incorrect,1760
19,3b,explicit_direct,12,AB,intermixed,4,correct,2184
19,3b,explicit_direct,13,AB,blocked,2,incorrect,1765
19,3b,explicit_direct,14,AB,blocked,3,incorrect,1732
19,3b,explicit_direct,15,AB,intermixed,6,incorrect,2647
19,3b,explicit_direct,16,AB,intermixed,5,correct,1507
19,3b,explicit_direct,17,AB,blocked,1,correct,1140
19,3b,explicit_direct,18,BC,intermixed,4,incorrect,5988
19,3b,explicit_direct,19,AB,blocked,3,incorrect,2609
19,3b,explicit_direct,20,AB,intermixed,6,incorrect,1326
19,3b,explicit_direct,21,BC,intermixed,4,incorrect,2480
19,3b,explicit_direct,22,BC,blocked,1,correct,1845
19,3b,explicit_direct,23,BC,blocked,2,correct,3022
19,3b,explicit_direct,24,AB,intermixed,5,correct,1399
20,3b,speeded_recognition,1,BC,blocked,2,correct,1321
20,3b,speeded_recognition,2,AB,intermixed,5,incorrect,1145
20,3b,speeded_recognition,3,BC,blocked,2,correct,1207
20,3b,speeded_recognition,4,BC,intermixed,5,incorrect,1128
20,3b,speeded_recognition,5,foil,intermixed,N/A,correct,1046
20,3b,speeded_recognition,6,BC,intermixed,6,incorrect,1270
20,3b,speeded_recognition,7,foil,intermixed,N/A,correct,1168
20,3b,speeded_recognition,8,AC,blocked,2,incorrect,991
20,3b,speeded_recognition,9,AB,intermixed,6,correct,1656
20,3b,speeded_recognition,10,AB,blocked,2,incorrect,1007
20,3b,speeded_recognition,11,AC,intermixed,6,incorrect,1101
20,3b,speeded_recognition,12,AC,blocked,3,correct,1479
20,3b,speeded_recognition,13,AB,intermixed,4,correct,1407
20,3b,speeded_recognition,14,foil,blocked,N/A,correct,2135
20,3b,speeded_recognition,15,AC,blocked,1,incorrect,1279
20,3b,speeded_recognition,16,AB,intermixed,6,correct,1238
20,3b,speeded_recognition,17,AC,blocked,1,correct,1801
20,3b,speeded_recognition,18,BC,intermixed,4,incorrect,1376
20,3b,speeded_recognition,19,AC,blocked,3,correct,1864
20,3b,speeded_recognition,20,foil,intermixed,N/A,correct,2263
20,3b,speeded_recognition,21,AB,blocked,1,correct,1104
20,3b,speeded_recognition,22,AC,intermixed,5,correct,1088
20,3b,speeded_recognition,23,BC,blocked,1,correct,1184
20,3b,speeded_recognition,24,AC,intermixed,6,correct,1432
20,3b,speeded_recognition,25,foil,intermixed,N/A,incorrect,895
20,3b,speeded_recognition,26,BC,blocked,1,correct,1640
20,3b,speeded_recognition,27,foil,blocked,N/A,incorrect,1719
20,3b,speeded_recognition,28,BC,blocked,3,correct,1857
20,3b,speeded_recognition,29,foil,blocked,N/A,correct,1159
20,3b,speeded_recognition,30,AC,intermixed,4,correct,1057
20,3b,speeded_recognition,31,foil,blocked,N/A,incorrect,1423
20,3b,speeded_recognition,32,BC,intermixed,4,incorrect,1023
20,3b,speeded_recognition,33,AB,blocked,1,correct,920
20,3b,speeded_recognition,34,BC,intermixed,6,correct,1336
20,3b,speeded_recognition,35,AB,blocked,3,correct,1272
20,3b,speeded_recognition,36,foil,intermixed,N/A,correct,1559
20,3b,speeded_recognition,37,AB,blocked,2,correct,1129
20,3b,speeded_recognition,38,AB,intermixed,5,correct,1360
20,3b,speeded_recognition,39,AB,blocked,3,correct,1432
20,3b,speeded_recognition,40,AB,intermixed,4,correct,950
20,3b,speeded_recognition,41,BC,blocked,3,correct,1048
20,3b,speeded_recognition,42,BC,intermixed,5,correct,1039
20,3b,speeded_recognition,43,foil,blocked,N/A,correct,1142
20,3b,speeded_recognition,44,foil,intermixed,N/A,correct,1568
20,3b,speeded_recognition,45,AC,intermixed,4,correct,1735
20,3b,speeded_recognition,46,foil,blocked,N/A,correct,1999
20,3b,speeded_recognition,47,AC,blocked,2,incorrect,1072
20,3b,speeded_recognition,48,AC,intermixed,5,correct,1126
20,3b,explicit_inference,1,AC,intermixed,5,incorrect,1745
20,3b,explicit_inference,2,AC,intermixed,6,correct,2337
20,3b,explicit_inference,3,AC,blocked,3,correct,1950
20,3b,explicit_inference,4,AC,intermixed,5,incorrect,1764
20,3b,explicit_inference,5,AC,blocked,2,correct,2713
20,3b,explicit_inference,6,AC,intermixed,4,incorrect,1554
20,3b,explicit_inference,7,AC,blocked,1,correct,2114
20,3b,explicit_inference,8,AC,blocked,3,correct,1821
20,3b,explicit_inference,9,AC,blocked,1,correct,1870
20,3b,explicit_inference,10,AC,intermixed,4,incorrect,2034
20,3b,explicit_inference,11,AC,intermixed,6,incorrect,2285
20,3b,explicit_inference,12,AC,blocked,2,correct,1177
20,3b,explicit_direct,1,AB,blocked,1,correct,1660
20,3b,explicit_direct,2,AB,intermixed,4,correct,2586
20,3b,explicit_direct,3,AB,intermixed,5,incorrect,2849
20,3b,explicit_direct,4,BC,intermixed,6,correct,2589
20,3b,explicit_direct,5,BC,blocked,1,correct,1466
20,3b,explicit_direct,6,BC,blocked,2,correct,1673
20,3b,explicit_direct,7,AB,intermixed,6,correct,1473
20,3b,explicit_direct,8,AB,intermixed,4,correct,1246
20,3b,explicit_direct,9,AB,blocked,3,correct,1286
20,3b,explicit_direct,10,BC,blocked,1,correct,1668
20,3b,explicit_direct,11,BC,intermixed,4,correct,2196
20,3b,explicit_direct,12,BC,blocked,2,correct,1304
20,3b,explicit_direct,13,AB,intermixed,5,correct,1554
20,3b,explicit_direct,14,BC,blocked,3,correct,1281
20,3b,explicit_direct,15,BC,intermixed,4,incorrect,1802
20,3b,explicit_direct,16,AB,blocked,1,correct,1574
20,3b,explicit_direct,17,BC,intermixed,6,correct,2032
20,3b,explicit_direct,18,AB,blocked,2,correct,2996
20,3b,explicit_direct,19,AB,intermixed,6,correct,1546
20,3b,explicit_direct,20,BC,blocked,3,correct,1220
20,3b,explicit_direct,21,BC,intermixed,5,correct,1395
20,3b,explicit_direct,22,AB,blocked,2,correct,1889
20,3b,explicit_direct,23,AB,blocked,3,correct,1287
20,3b,explicit_direct,24,BC,intermixed,5,correct,1304
21,3b,speeded_recognition,1,AB,blocked,2,incorrect,1218
21,3b,speeded_recognition,2,foil,blocked,N/A,incorrect,1289
21,3b,speeded_recognition,3,AC,intermixed,4,incorrect,1445
21,3b,speeded_recognition,4,AB,blocked,1,correct,1248
21,3b,speeded_recognition,5,BC,intermixed,5,incorrect,1427
21,3b,speeded_recognition,6,foil,blocked,N/A,incorrect,811
21,3b,speeded_recognition,7,AC,intermixed,5,incorrect,1097
21,3b,speeded_recognition,8,AC,blocked,3,incorrect,1074
21,3b,speeded_recognition,9,foil,intermixed,N/A,incorrect,791
21,3b,speeded_recognition,10,BC,intermixed,4,incorrect,553
21,3b,speeded_recognition,11,BC,blocked,3,correct,447
21,3b,speeded_recognition,12,AB,intermixed,6,N/A,N/A
21,3b,speeded_recognition,13,BC,blocked,2,correct,458
21,3b,speeded_recognition,14,AB,intermixed,4,correct,347
21,3b,speeded_recognition,15,AB,blocked,3,incorrect,1353
21,3b,speeded_recognition,16,AC,intermixed,4,correct,696
21,3b,speeded_recognition,17,AB,blocked,2,correct,621
21,3b,speeded_recognition,18,BC,intermixed,5,correct,547
21,3b,speeded_recognition,19,AC,blocked,1,N/A,N/A
21,3b,speeded_recognition,20,AB,intermixed,4,correct,513
21,3b,speeded_recognition,21,foil,intermixed,N/A,incorrect,394
21,3b,speeded_recognition,22,AB,blocked,1,N/A,N/A
21,3b,speeded_recognition,23,foil,intermixed,N/A,incorrect,738
21,3b,speeded_recognition,24,AC,blocked,3,correct,1324
21,3b,speeded_recognition,25,AC,intermixed,6,incorrect,775
21,3b,speeded_recognition,26,foil,blocked,N/A,incorrect,1122
21,3b,speeded_recognition,27,BC,blocked,2,correct,1194
21,3b,speeded_recognition,28,BC,intermixed,6,correct,1186
21,3b,speeded_recognition,29,foil,blocked,N/A,incorrect,1276
21,3b,speeded_recognition,30,BC,intermixed,6,correct,2602
21,3b,speeded_recognition,31,BC,blocked,1,correct,747
21,3b,speeded_recognition,32,AB,intermixed,6,correct,692
21,3b,speeded_recognition,33,AC,blocked,1,incorrect,1235
21,3b,speeded_recognition,34,foil,intermixed,N/A,correct,2335
21,3b,speeded_recognition,35,BC,blocked,1,incorrect,536
21,3b,speeded_recognition,36,AC,intermixed,6,correct,397
21,3b,speeded_recognition,37,AB,blocked,3,correct,665
21,3b,speeded_recognition,38,foil,blocked,N/A,incorrect,610
21,3b,speeded_recognition,39,AB,intermixed,5,correct,663
21,3b,speeded_recognition,40,BC,blocked,3,correct,712
21,3b,speeded_recognition,41,AB,intermixed,5,correct,531
21,3b,speeded_recognition,42,foil,intermixed,N/A,correct,683
21,3b,speeded_recognition,43,foil,intermixed,N/A,correct,455
21,3b,speeded_recognition,44,AC,blocked,2,incorrect,571
21,3b,speeded_recognition,45,foil,blocked,N/A,incorrect,938
21,3b,speeded_recognition,46,BC,intermixed,4,correct,453
21,3b,speeded_recognition,47,AC,blocked,2,incorrect,568
21,3b,speeded_recognition,48,AC,intermixed,5,incorrect,398
21,3b,explicit_inference,1,AC,intermixed,4,correct,6384
21,3b,explicit_inference,2,AC,intermixed,5,incorrect,1312
21,3b,explicit_inference,3,AC,intermixed,6,correct,2433
21,3b,explicit_inference,4,AC,blocked,1,incorrect,2755
21,3b,explicit_inference,5,AC,blocked,2,incorrect,1455
21,3b,explicit_inference,6,AC,intermixed,4,incorrect,2019
21,3b,explicit_inference,7,AC,blocked,2,incorrect,1419
21,3b,explicit_inference,8,AC,blocked,3,incorrect,1504
21,3b,explicit_inference,9,AC,intermixed,6,correct,1578
21,3b,explicit_inference,10,AC,intermixed,5,correct,1727
21,3b,explicit_inference,11,AC,blocked,3,correct,1405
21,3b,explicit_inference,12,AC,blocked,1,incorrect,1650
21,3b,explicit_direct,1,AB,blocked,1,incorrect,3531
21,3b,explicit_direct,2,AB,blocked,2,correct,2259
21,3b,explicit_direct,3,AB,intermixed,4,correct,1558
21,3b,explicit_direct,4,AB,blocked,1,correct,1364
21,3b,explicit_direct,5,AB,blocked,3,correct,1747
21,3b,explicit_direct,6,BC,blocked,1,correct,1809
21,3b,explicit_direct,7,AB,intermixed,4,correct,1434
21,3b,explicit_direct,8,BC,blocked,2,incorrect,1755
21,3b,explicit_direct,9,AB,intermixed,5,correct,1439
21,3b,explicit_direct,10,BC,intermixed,6,correct,3470
21,3b,explicit_direct,11,BC,intermixed,5,incorrect,2077
21,3b,explicit_direct,12,BC,blocked,3,correct,1573
21,3b,explicit_direct,13,BC,intermixed,6,incorrect,1437
21,3b,explicit_direct,14,BC,intermixed,5,incorrect,1396
21,3b,explicit_direct,15,AB,blocked,2,incorrect,1943
21,3b,explicit_direct,16,BC,blocked,1,correct,1446
21,3b,explicit_direct,17,BC,intermixed,4,correct,1429
21,3b,explicit_direct,18,AB,intermixed,6,incorrect,1749
21,3b,explicit_direct,19,AB,intermixed,5,correct,1581
21,3b,explicit_direct,20,AB,blocked,3,incorrect,1183
21,3b,explicit_direct,21,BC,blocked,2,incorrect,1405
21,3b,explicit_direct,22,AB,intermixed,6,incorrect,1198
21,3b,explicit_direct,23,BC,intermixed,4,incorrect,1338
21,3b,explicit_direct,24,BC,blocked,3,incorrect,1124
22,3b,speeded_recognition,1,AB,intermixed,4,correct,2191
22,3b,speeded_recognition,2,AB,blocked,1,correct,1640
22,3b,speeded_recognition,3,foil,intermixed,N/A,correct,906
22,3b,speeded_recognition,4,AC,intermixed,4,incorrect,1123
22,3b,speeded_recognition,5,BC,blocked,2,incorrect,1702
22,3b,speeded_recognition,6,foil,blocked,N/A,incorrect,2518
22,3b,speeded_recognition,7,AC,intermixed,4,correct,948
22,3b,speeded_recognition,8,AC,blocked,1,incorrect,1239
22,3b,speeded_recognition,9,AC,intermixed,6,incorrect,1693
22,3b,speeded_recognition,10,AB,blocked,2,correct,899
22,3b,speeded_recognition,11,BC,intermixed,5,correct,1214
22,3b,speeded_recognition,12,AC,blocked,2,incorrect,1231
22,3b,speeded_recognition,13,BC,intermixed,5,correct,1195
22,3b,speeded_recognition,14,AB,blocked,1,correct,1028
22,3b,speeded_recognition,15,AB,intermixed,4,correct,845
22,3b,speeded_recognition,16,BC,blocked,3,correct,911
22,3b,speeded_recognition,17,BC,intermixed,4,correct,1018
22,3b,speeded_recognition,18,AC,blocked,3,incorrect,695
22,3b,speeded_recognition,19,BC,intermixed,6,correct,1304
22,3b,speeded_recognition,20,foil,intermixed,N/A,incorrect,936
22,3b,speeded_recognition,21,AB,blocked,3,incorrect,1419
22,3b,speeded_recognition,22,AB,intermixed,5,correct,1400
22,3b,speeded_recognition,23,foil,blocked,N/A,incorrect,882
22,3b,speeded_recognition,24,AB,blocked,2,correct,758
22,3b,speeded_recognition,25,foil,intermixed,N/A,incorrect,763
22,3b,speeded_recognition,26,foil,intermixed,N/A,incorrect,1110
22,3b,speeded_recognition,27,AC,intermixed,6,correct,1147
22,3b,speeded_recognition,28,BC,blocked,2,correct,1039
22,3b,speeded_recognition,29,AB,intermixed,6,correct,787
22,3b,speeded_recognition,30,BC,blocked,3,correct,754
22,3b,speeded_recognition,31,foil,blocked,N/A,incorrect,1199
22,3b,speeded_recognition,32,foil,intermixed,N/A,correct,795
22,3b,speeded_recognition,33,AC,blocked,3,incorrect,2220
22,3b,speeded_recognition,34,AB,intermixed,6,correct,957
22,3b,speeded_recognition,35,AC,blocked,2,incorrect,803
22,3b,speeded_recognition,36,AC,intermixed,5,incorrect,815
