subject,experiment,task_type,trial_number,target_pair_type,target_pair_condition,target_triad_index,response_correct,response_time
1,3a,speeded_recognition,1,BC,intermixed,5,correct,2081
1,3a,speeded_recognition,2,foil,intermixed,N/A,correct,2455
1,3a,speeded_recognition,3,BC,blocked,2,correct,1644
1,3a,speeded_recognition,4,BC,intermixed,6,correct,1191
1,3a,speeded_recognition,5,AC,blocked,1,correct,1456
1,3a,speeded_recognition,6,AB,intermixed,5,correct,1183
1,3a,speeded_recognition,7,AC,blocked,3,correct,1862
1,3a,speeded_recognition,8,AB,intermixed,6,correct,1599
1,3a,speeded_recognition,9,AC,blocked,2,correct,1349
1,3a,speeded_recognition,10,AC,intermixed,6,incorrect,1816
1,3a,speeded_recognition,11,AB,blocked,3,correct,1678
1,3a,speeded_recognition,12,foil,blocked,N/A,correct,2215
1,3a,speeded_recognition,13,AC,intermixed,4,correct,2151
1,3a,speeded_recognition,14,foil,intermixed,N/A,correct,1713
1,3a,speeded_recognition,15,foil,blocked,N/A,incorrect,2455
1,3a,speeded_recognition,16,BC,blocked,3,correct,2366
1,3a,speeded_recognition,17,BC,intermixed,4,correct,2472
1,3a,speeded_recognition,18,AC,blocked,3,correct,2506
1,3a,speeded_recognition,19,AC,intermixed,5,incorrect,2191
1,3a,speeded_recognition,20,BC,blocked,2,incorrect,2336
1,3a,speeded_recognition,21,foil,intermixed,N/A,incorrect,2895
1,3a,speeded_recognition,22,foil,blocked,N/A,correct,3238
1,3a,speeded_recognition,23,AC,intermixed,4,incorrect,1760
1,3a,speeded_recognition,24,BC,blocked,1,correct,2353
1,3a,speeded_recognition,25,BC,intermixed,5,correct,2105
1,3a,speeded_recognition,26,AC,blocked,1,correct,1861
1,3a,speeded_recognition,27,foil,intermixed,N/A,incorrect,2729
1,3a,speeded_recognition,28,AB,intermixed,5,correct,2247
1,3a,speeded_recognition,29,foil,blocked,N/A,correct,2151
1,3a,speeded_recognition,30,foil,intermixed,N/A,incorrect,1959
1,3a,speeded_recognition,31,AC,intermixed,5,incorrect,1645
1,3a,speeded_recognition,32,AB,blocked,3,correct,2053
1,3a,speeded_recognition,33,AB,intermixed,4,correct,2199
1,3a,speeded_recognition,34,AB,blocked,1,correct,3047
1,3a,speeded_recognition,35,foil,intermixed,N/A,correct,2452
1,3a,speeded_recognition,36,foil,blocked,N/A,incorrect,1968
1,3a,speeded_recognition,37,BC,intermixed,4,correct,2646
1,3a,speeded_recognition,38,AB,blocked,2,correct,2368
1,3a,speeded_recognition,39,AC,intermixed,6,correct,2806
1,3a,speeded_recognition,40,BC,blocked,3,incorrect,2542
1,3a,speeded_recognition,41,AB,intermixed,6,correct,3002
1,3a,speeded_recognition,42,AB,blocked,2,incorrect,2944
1,3a,speeded_recognition,43,foil,blocked,N/A,incorrect,2126
1,3a,speeded_recognition,44,AC,blocked,2,correct,2158
1,3a,speeded_recognition,45,BC,intermixed,6,correct,2152
1,3a,speeded_recognition,46,BC,blocked,1,correct,2608
1,3a,speeded_recognition,47,AB,intermixed,4,correct,2526
1,3a,speeded_recognition,48,AB,blocked,1,correct,2151
1,3a,explicit_inference,1,AC,blocked,1,correct,4826
1,3a,explicit_inference,2,AC,blocked,3,correct,2597
1,3a,explicit_inference,3,AC,intermixed,5,incorrect,2258
1,3a,explicit_inference,4,AC,intermixed,4,incorrect,2837
1,3a,explicit_inference,5,AC,blocked,2,incorrect,2178
1,3a,explicit_inference,6,AC,intermixed,6,correct,2396
1,3a,explicit_inference,7,AC,blocked,3,correct,2052
1,3a,explicit_inference,8,AC,intermixed,4,incorrect,1619
1,3a,explicit_inference,9,AC,blocked,2,incorrect,4101
1,3a,explicit_inference,10,AC,intermixed,6,incorrect,4045
1,3a,explicit_inference,11,AC,intermixed,5,incorrect,1709
1,3a,explicit_inference,12,AC,blocked,1,correct,2966
2,3a,speeded_recognition,1,AB,intermixed,5,correct,1495
2,3a,speeded_recognition,2,BC,blocked,1,correct,1361
2,3a,speeded_recognition,3,foil,blocked,N/A,correct,1294
2,3a,speeded_recognition,4,AB,intermixed,6,correct,1304
2,3a,speeded_recognition,5,foil,blocked,N/A,correct,1102
2,3a,speeded_recognition,6,BC,blocked,3,correct,1268
2,3a,speeded_recognition,7,foil,blocked,N/A,correct,1596
2,3a,speeded_recognition,8,BC,intermixed,5,correct,1190
2,3a,speeded_recognition,9,AC,blocked,2,incorrect,1373
2,3a,speeded_recognition,10,BC,intermixed,4,correct,1338
2,3a,speeded_recognition,11,BC,blocked,2,correct,1073
2,3a,speeded_recognition,12,AC,intermixed,4,correct,1542
2,3a,speeded_recognition,13,foil,blocked,N/A,correct,1176
2,3a,speeded_recognition,14,AC,intermixed,5,correct,1343
2,3a,speeded_recognition,15,AB,blocked,1,correct,1195
2,3a,speeded_recognition,16,foil,blocked,N/A,correct,1487
2,3a,speeded_recognition,17,foil,intermixed,N/A,incorrect,1079
2,3a,speeded_recognition,18,AC,blocked,1,correct,1414
2,3a,speeded_recognition,19,AC,intermixed,6,incorrect,1025
2,3a,speeded_recognition,20,BC,blocked,3,correct,1148
2,3a,speeded_recognition,21,foil,intermixed,N/A,correct,1360
2,3a,speeded_recognition,22,BC,blocked,2,correct,1059
2,3a,speeded_recognition,23,AC,intermixed,4,incorrect,1539
2,3a,speeded_recognition,24,AC,blocked,1,correct,969
2,3a,speeded_recognition,25,AB,intermixed,4,correct,1193
2,3a,speeded_recognition,26,foil,intermixed,N/A,incorrect,1271
2,3a,speeded_recognition,27,AC,intermixed,6,incorrect,1061
2,3a,speeded_recognition,28,AC,blocked,3,correct,1497
2,3a,speeded_recognition,29,BC,intermixed,4,incorrect,1272
2,3a,speeded_recognition,30,BC,blocked,1,correct,1466
2,3a,speeded_recognition,31,foil,intermixed,N/A,incorrect,1231
2,3a,speeded_recognition,32,AB,blocked,3,correct,1022
2,3a,speeded_recognition,33,AC,intermixed,5,incorrect,1007
2,3a,speeded_recognition,34,AC,blocked,2,correct,1229
2,3a,speeded_recognition,35,BC,intermixed,6,correct,974
2,3a,speeded_recognition,36,AB,blocked,1,correct,1086
2,3a,speeded_recognition,37,BC,intermixed,5,correct,843
2,3a,speeded_recognition,38,foil,blocked,N/A,correct,1140
2,3a,speeded_recognition,39,AB,intermixed,4,correct,1079
2,3a,speeded_recognition,40,AB,blocked,2,correct,999
2,3a,speeded_recognition,41,AB,intermixed,5,correct,933
2,3a,speeded_recognition,42,foil,intermixed,N/A,incorrect,1115
2,3a,speeded_recognition,43,AB,blocked,3,correct,984
2,3a,speeded_recognition,44,foil,intermixed,N/A,incorrect,1050
2,3a,speeded_recognition,45,AC,blocked,3,correct,1134
2,3a,speeded_recognition,46,BC,intermixed,6,correct,993
2,3a,speeded_recognition,47,AB,blocked,2,correct,1205
2,3a,speeded_recognition,48,AB,intermixed,6,correct,889
2,3a,explicit_inference,1,AC,blocked,3,incorrect,2015
2,3a,explicit_inference,2,AC,intermixed,5,correct,1759
2,3a,explicit_inference,3,AC,blocked,1,incorrect,1327
2,3a,explicit_inference,4,AC,blocked,2,correct,1761
2,3a,explicit_inference,5,AC,intermixed,4,incorrect,1625
2,3a,explicit_inference,6,AC,intermixed,6,correct,2391
2,3a,explicit_inference,7,AC,intermixed,5,correct,1637
2,3a,explicit_inference,8,AC,blocked,3,correct,1795
2,3a,explicit_inference,9,AC,intermixed,6,correct,1742
2,3a,explicit_inference,10,AC,blocked,1,incorrect,1674
2,3a,explicit_inference,11,AC,intermixed,4,correct,1589
2,3a,explicit_inference,12,AC,blocked,2,incorrect,2239
3,3a,speeded_recognition,1,AC,blocked,3,correct,1391
3,3a,speeded_recognition,2,AC,intermixed,6,incorrect,1135
3,3a,speeded_recognition,3,BC,blocked,3,correct,1359
3,3a,speeded_recognition,4,foil,blocked,N/A,correct,1073
3,3a,speeded_recognition,5,BC,intermixed,4,correct,1095
3,3a,speeded_recognition,6,BC,blocked,2,correct,1241
3,3a,speeded_recognition,7,foil,intermixed,N/A,incorrect,1352
3,3a,speeded_recognition,8,AC,intermixed,4,correct,1034
3,3a,speeded_recognition,9,AC,blocked,1,incorrect,1420
3,3a,speeded_recognition,10,AC,intermixed,6,correct,1630
3,3a,speeded_recognition,11,AB,blocked,1,correct,2139
3,3a,speeded_recognition,12,BC,intermixed,6,correct,1715
3,3a,speeded_recognition,13,foil,blocked,N/A,incorrect,1528
3,3a,speeded_recognition,14,BC,intermixed,5,correct,1218
3,3a,speeded_recognition,15,AB,blocked,3,incorrect,1150
3,3a,speeded_recognition,16,foil,intermixed,N/A,incorrect,1536
3,3a,speeded_recognition,17,AC,intermixed,4,correct,1127
3,3a,speeded_recognition,18,BC,blocked,1,correct,1278
3,3a,speeded_recognition,19,foil,blocked,N/A,incorrect,1425
3,3a,speeded_recognition,20,AC,intermixed,5,correct,1352
3,3a,speeded_recognition,21,BC,blocked,3,correct,1430
3,3a,speeded_recognition,22,AB,intermixed,6,correct,920
3,3a,speeded_recognition,23,BC,blocked,2,correct,1350
3,3a,speeded_recognition,24,AB,intermixed,4,incorrect,1171
3,3a,speeded_recognition,25,foil,blocked,N/A,correct,1424
3,3a,speeded_recognition,26,BC,intermixed,4,correct,1125
3,3a,speeded_recognition,27,AB,blocked,3,incorrect,1381
3,3a,speeded_recognition,28,AC,intermixed,5,incorrect,1122
3,3a,speeded_recognition,29,AB,blocked,1,correct,1135
3,3a,speeded_recognition,30,BC,intermixed,5,correct,1080
3,3a,speeded_recognition,31,BC,blocked,1,correct,1292
3,3a,speeded_recognition,32,BC,intermixed,6,correct,1376
3,3a,speeded_recognition,33,AC,blocked,3,correct,1457
3,3a,speeded_recognition,34,AB,intermixed,6,correct,830
3,3a,speeded_recognition,35,foil,intermixed,N/A,incorrect,1421
3,3a,speeded_recognition,36,AB,blocked,2,correct,1630
3,3a,speeded_recognition,37,foil,blocked,N/A,incorrect,1488
3,3a,speeded_recognition,38,foil,blocked,N/A,correct,1255
3,3a,speeded_recognition,39,AB,intermixed,4,incorrect,1715
3,3a,speeded_recognition,40,AC,blocked,1,incorrect,1217
3,3a,speeded_recognition,41,foil,intermixed,N/A,correct,1821
3,3a,speeded_recognition,42,AB,intermixed,5,correct,1143
3,3a,speeded_recognition,43,AB,blocked,2,correct,1256
3,3a,speeded_recognition,44,AB,intermixed,5,correct,1417
3,3a,speeded_recognition,45,foil,intermixed,N/A,correct,1467
3,3a,speeded_recognition,46,AC,blocked,2,correct,1278
3,3a,speeded_recognition,47,foil,intermixed,N/A,correct,1228
3,3a,speeded_recognition,48,AC,blocked,2,correct,1411
3,3a,explicit_inference,1,AC,intermixed,6,correct,2425
3,3a,explicit_inference,2,AC,intermixed,4,correct,2604
3,3a,explicit_inference,3,AC,blocked,3,incorrect,2187
3,3a,explicit_inference,4,AC,intermixed,5,correct,2414
3,3a,explicit_inference,5,AC,blocked,1,correct,1508
3,3a,explicit_inference,6,AC,blocked,2,incorrect,1896
3,3a,explicit_inference,7,AC,blocked,1,correct,2184
3,3a,explicit_inference,8,AC,intermixed,6,correct,1624
3,3a,explicit_inference,9,AC,intermixed,5,correct,2277
3,3a,explicit_inference,10,AC,blocked,2,incorrect,2013
3,3a,explicit_inference,11,AC,blocked,3,correct,1780
3,3a,explicit_inference,12,AC,intermixed,4,incorrect,1670
4,3a,speeded_recognition,1,AB,blocked,2,incorrect,1328
4,3a,speeded_recognition,2,foil,intermixed,N/A,incorrect,1262
4,3a,speeded_recognition,3,AB,intermixed,6,correct,1071
4,3a,speeded_recognition,4,foil,intermixed,N/A,correct,1482
4,3a,speeded_recognition,5,AC,blocked,3,correct,1244
4,3a,speeded_recognition,6,AB,intermixed,6,correct,1437
4,3a,speeded_recognition,7,AC,blocked,1,correct,1200
4,3a,speeded_recognition,8,foil,blocked,N/A,correct,1734
4,3a,speeded_recognition,9,AB,intermixed,5,correct,1662
4,3a,speeded_recognition,10,foil,blocked,N/A,correct,959
4,3a,speeded_recognition,11,BC,blocked,1,correct,1263
4,3a,speeded_recognition,12,AC,intermixed,4,correct,1853
4,3a,speeded_recognition,13,BC,blocked,3,incorrect,1736
4,3a,speeded_recognition,14,AC,intermixed,4,incorrect,1184
4,3a,speeded_recognition,15,AB,blocked,2,correct,1213
4,3a,speeded_recognition,16,BC,intermixed,4,correct,1468
4,3a,speeded_recognition,17,foil,blocked,N/A,incorrect,2219
4,3a,speeded_recognition,18,BC,blocked,1,correct,1390
4,3a,speeded_recognition,19,AB,intermixed,5,correct,1190
4,3a,speeded_recognition,20,foil,intermixed,N/A,incorrect,2543
4,3a,speeded_recognition,21,AC,blocked,1,correct,1085
4,3a,speeded_recognition,22,AC,intermixed,5,correct,1312
4,3a,speeded_recognition,23,AB,blocked,3,correct,1243
4,3a,speeded_recognition,24,BC,intermixed,5,incorrect,1495
4,3a,speeded_recognition,25,foil,intermixed,N/A,incorrect,1081
4,3a,speeded_recognition,26,BC,blocked,2,correct,2251
4,3a,speeded_recognition,27,AC,intermixed,6,correct,958
4,3a,speeded_recognition,28,AB,blocked,1,correct,899
4,3a,speeded_recognition,29,AB,intermixed,4,correct,898
4,3a,speeded_recognition,30,foil,intermixed,N/A,correct,1344
4,3a,speeded_recognition,31,AB,blocked,1,correct,796
4,3a,speeded_recognition,32,foil,blocked,N/A,correct,1583
4,3a,speeded_recognition,33,foil,blocked,N/A,incorrect,1634
4,3a,speeded_recognition,34,AC,blocked,2,correct,984
4,3a,speeded_recognition,35,BC,intermixed,6,correct,1592
4,3a,speeded_recognition,36,BC,blocked,3,correct,939
4,3a,speeded_recognition,37,BC,intermixed,5,incorrect,1001
4,3a,speeded_recognition,38,BC,blocked,2,correct,1138
4,3a,speeded_recognition,39,BC,intermixed,6,correct,1107
4,3a,speeded_recognition,40,AB,blocked,3,correct,1604
4,3a,speeded_recognition,41,AC,intermixed,6,correct,1241
4,3a,speeded_recognition,42,AC,blocked,2,incorrect,1260
4,3a,speeded_recognition,43,BC,intermixed,4,correct,1039
4,3a,speeded_recognition,44,AC,blocked,3,correct,967
4,3a,speeded_recognition,45,AC,intermixed,5,incorrect,1185
4,3a,speeded_recognition,46,foil,blocked,N/A,incorrect,1169
4,3a,speeded_recognition,47,AB,intermixed,4,correct,811
4,3a,speeded_recognition,48,foil,intermixed,N/A,correct,1006
4,3a,explicit_inference,1,AC,blocked,3,correct,3882
4,3a,explicit_inference,2,AC,intermixed,4,incorrect,2217
4,3a,explicit_inference,3,AC,intermixed,6,incorrect,2765
4,3a,explicit_inference,4,AC,blocked,2,correct,1124
4,3a,explicit_inference,5,AC,blocked,1,correct,1768
4,3a,explicit_inference,6,AC,intermixed,5,correct,1772
4,3a,explicit_inference,7,AC,intermixed,6,incorrect,1062
4,3a,explicit_inference,8,AC,blocked,3,incorrect,1456
4,3a,explicit_inference,9,AC,blocked,2,correct,1882
4,3a,explicit_inference,10,AC,intermixed,5,correct,1116
4,3a,explicit_inference,11,AC,blocked,1,incorrect,1008
4,3a,explicit_inference,12,AC,intermixed,4,incorrect,1419
5,3a,speeded_recognition,1,foil,intermixed,N/A,correct,1768
5,3a,speeded_recognition,2,BC,intermixed,5,correct,2096
5,3a,speeded_recognition,3,foil,intermixed,N/A,correct,2192
5,3a,speeded_recognition,4,AB,blocked,2,correct,1567
5,3a,speeded_recognition,5,AC,intermixed,5,incorrect,1744
5,3a,speeded_recognition,6,AB,blocked,1,correct,1856
5,3a,speeded_recognition,7,AC,intermixed,6,incorrect,1655
5,3a,speeded_recognition,8,BC,blocked,1,correct,1824
5,3a,speeded_recognition,9,AB,intermixed,4,incorrect,1399
5,3a,speeded_recognition,10,AC,blocked,3,correct,1680
5,3a,speeded_recognition,11,AC,intermixed,4,correct,2383
5,3a,speeded_recognition,12,AB,blocked,2,correct,1440
5,3a,speeded_recognition,13,BC,intermixed,6,correct,1768
5,3a,speeded_recognition,14,foil,intermixed,N/A,correct,1616
5,3a,speeded_recognition,15,BC,blocked,3,correct,1519
5,3a,speeded_recognition,16,AB,intermixed,6,correct,2032
5,3a,speeded_recognition,17,BC,blocked,1,correct,1487
5,3a,speeded_recognition,18,AB,intermixed,6,correct,1336
5,3a,speeded_recognition,19,foil,intermixed,N/A,incorrect,1751
5,3a,speeded_recognition,20,AC,blocked,2,incorrect,1848
5,3a,speeded_recognition,21,AC,intermixed,5,incorrect,2248
5,3a,speeded_recognition,22,AB,blocked,3,correct,1351
5,3a,speeded_recognition,23,AC,intermixed,6,incorrect,1255
5,3a,speeded_recognition,24,AC,blocked,1,correct,2095
5,3a,speeded_recognition,25,foil,blocked,N/A,correct,1888
5,3a,speeded_recognition,26,BC,intermixed,5,correct,1696
5,3a,speeded_recognition,27,BC,blocked,2,correct,1031
5,3a,speeded_recognition,28,AB,intermixed,5,correct,1272
5,3a,speeded_recognition,29,foil,intermixed,N/A,correct,967
5,3a,speeded_recognition,30,AC,blocked,2,incorrect,1192
5,3a,speeded_recognition,31,BC,intermixed,4,correct,1647
5,3a,speeded_recognition,32,AB,blocked,3,correct,1615
5,3a,speeded_recognition,33,foil,blocked,N/A,correct,1399
5,3a,speeded_recognition,34,BC,intermixed,4,correct,1376
5,3a,speeded_recognition,35,foil,blocked,N/A,correct,1152
5,3a,speeded_recognition,36,BC,blocked,3,correct,984
5,3a,speeded_recognition,37,AB,intermixed,5,incorrect,951
5,3a,speeded_recognition,38,foil,blocked,N/A,correct,1248
5,3a,speeded_recognition,39,foil,intermixed,N/A,correct,1648
5,3a,speeded_recognition,40,AC,blocked,3,correct,1160
5,3a,speeded_recognition,41,AC,intermixed,4,correct,1272
5,3a,speeded_recognition,42,AB,blocked,1,incorrect,1633
5,3a,speeded_recognition,43,AB,intermixed,4,correct,1831
5,3a,speeded_recognition,44,foil,blocked,N/A,correct,1752
5,3a,speeded_recognition,45,foil,blocked,N/A,correct,2111
5,3a,speeded_recognition,46,BC,blocked,2,correct,1561
5,3a,speeded_recognition,47,BC,intermixed,6,correct,2030
5,3a,speeded_recognition,48,AC,blocked,1,correct,1416
5,3a,explicit_inference,1,AC,blocked,3,incorrect,1582
5,3a,explicit_inference,2,AC,blocked,1,incorrect,1657
5,3a,explicit_inference,3,AC,intermixed,4,incorrect,1416
5,3a,explicit_inference,4,AC,intermixed,6,correct,1360
5,3a,explicit_inference,5,AC,blocked,2,correct,1481
5,3a,explicit_inference,6,AC,intermixed,5,correct,1391
5,3a,explicit_inference,7,AC,intermixed,4,correct,1349
5,3a,explicit_inference,8,AC,intermixed,5,correct,1124
5,3a,explicit_inference,9,AC,blocked,1,correct,1206
5,3a,explicit_inference,10,AC,blocked,2,correct,1654
5,3a,explicit_inference,11,AC,intermixed,6,incorrect,1291
5,3a,explicit_inference,12,AC,blocked,3,incorrect,1916
6,3a,speeded_recognition,1,BC,blocked,1,correct,1831
6,3a,speeded_recognition,2,BC,intermixed,4,incorrect,1318
6,3a,speeded_recognition,3,foil,blocked,N/A,incorrect,1162
6,3a,speeded_recognition,4,foil,blocked,N/A,correct,1123
6,3a,speeded_recognition,5,AC,intermixed,4,incorrect,1243
6,3a,speeded_recognition,6,AC,blocked,3,correct,1162
6,3a,speeded_recognition,7,AC,intermixed,5,incorrect,1201
6,3a,speeded_recognition,8,AB,blocked,3,correct,1083
6,3a,speeded_recognition,9,BC,intermixed,6,incorrect,1201
6,3a,speeded_recognition,10,foil,intermixed,N/A,incorrect,965
6,3a,speeded_recognition,11,AB,blocked,1,correct,1123
6,3a,speeded_recognition,12,AB,intermixed,4,correct,1182
6,3a,speeded_recognition,13,BC,blocked,3,correct,1201
6,3a,speeded_recognition,14,AC,intermixed,6,correct,1752
6,3a,speeded_recognition,15,foil,blocked,N/A,incorrect,1792
6,3a,speeded_recognition,16,AC,intermixed,6,incorrect,1871
6,3a,speeded_recognition,17,BC,blocked,1,correct,1319
6,3a,speeded_recognition,18,BC,intermixed,6,correct,1476
6,3a,speeded_recognition,19,BC,blocked,3,correct,1987
6,3a,speeded_recognition,20,AB,intermixed,6,incorrect,1476
6,3a,speeded_recognition,21,AC,blocked,2,incorrect,1595
6,3a,speeded_recognition,22,foil,blocked,N/A,incorrect,1203
6,3a,speeded_recognition,23,AB,intermixed,6,correct,1201
6,3a,speeded_recognition,24,BC,blocked,2,incorrect,1240
6,3a,speeded_recognition,25,AB,intermixed,4,correct,1673
6,3a,speeded_recognition,26,AB,blocked,3,correct,1240
6,3a,speeded_recognition,27,AC,intermixed,5,incorrect,2106
6,3a,speeded_recognition,28,AC,blocked,3,correct,1083
6,3a,speeded_recognition,29,AC,intermixed,4,incorrect,1359
6,3a,speeded_recognition,30,AB,blocked,1,correct,1516
6,3a,speeded_recognition,31,foil,intermixed,N/A,correct,1516
6,3a,speeded_recognition,32,AC,blocked,1,incorrect,1868
6,3a,speeded_recognition,33,foil,intermixed,N/A,incorrect,1673
6,3a,speeded_recognition,34,BC,intermixed,4,incorrect,2029
6,3a,speeded_recognition,35,AB,blocked,2,correct,1791
6,3a,speeded_recognition,36,BC,intermixed,5,correct,1752
6,3a,speeded_recognition,37,foil,blocked,N/A,incorrect,1792
6,3a,speeded_recognition,38,foil,intermixed,N/A,incorrect,1516
6,3a,speeded_recognition,39,AC,blocked,1,correct,1319
6,3a,speeded_recognition,40,foil,intermixed,N/A,incorrect,2068
6,3a,speeded_recognition,41,BC,blocked,2,incorrect,1792
6,3a,speeded_recognition,42,foil,blocked,N/A,incorrect,867
6,3a,speeded_recognition,43,BC,intermixed,5,correct,1083
6,3a,speeded_recognition,44,foil,intermixed,N/A,incorrect,1437
6,3a,speeded_recognition,45,AB,intermixed,5,correct,1595
6,3a,speeded_recognition,46,AC,blocked,2,correct,1241
6,3a,speeded_recognition,47,AB,intermixed,5,correct,1319
6,3a,speeded_recognition,48,AB,blocked,2,correct,1477
6,3a,explicit_inference,1,AC,intermixed,5,incorrect,2974
6,3a,explicit_inference,2,AC,intermixed,6,incorrect,1534
6,3a,explicit_inference,3,AC,blocked,1,incorrect,2607
6,3a,explicit_inference,4,AC,blocked,3,incorrect,1582
6,3a,explicit_inference,5,AC,intermixed,4,correct,1590
6,3a,explicit_inference,6,AC,blocked,2,incorrect,1551
6,3a,explicit_inference,7,AC,intermixed,5,incorrect,1831
6,3a,explicit_inference,8,AC,blocked,2,incorrect,1614
6,3a,explicit_inference,9,AC,blocked,1,correct,2238
6,3a,explicit_inference,10,AC,intermixed,6,incorrect,1622
6,3a,explicit_inference,11,AC,intermixed,4,correct,2079
6,3a,explicit_inference,12,AC,blocked,3,incorrect,2454
7,3a,speeded_recognition,1,AC,intermixed,6,incorrect,1244
7,3a,speeded_recognition,2,BC,blocked,1,correct,1275
7,3a,speeded_recognition,3,AB,intermixed,6,correct,1772
7,3a,speeded_recognition,4,foil,blocked,N/A,correct,1528
7,3a,speeded_recognition,5,foil,intermixed,N/A,correct,1195
7,3a,speeded_recognition,6,AC,blocked,1,incorrect,1021
7,3a,speeded_recognition,7,AC,intermixed,6,incorrect,1593
7,3a,speeded_recognition,8,AB,blocked,3,incorrect,1451
7,3a,speeded_recognition,9,AC,intermixed,5,correct,1140
7,3a,speeded_recognition,10,foil,blocked,N/A,correct,1651
7,3a,speeded_recognition,11,BC,blocked,2,correct,1410
7,3a,speeded_recognition,12,BC,intermixed,4,correct,1429
7,3a,speeded_recognition,13,AC,blocked,2,correct,1401
7,3a,speeded_recognition,14,foil,intermixed,N/A,correct,1455
7,3a,speeded_recognition,15,AC,blocked,3,incorrect,1343
7,3a,speeded_recognition,16,BC,intermixed,5,correct,1325
7,3a,speeded_recognition,17,foil,blocked,N/A,correct,1290
7,3a,speeded_recognition,18,AB,blocked,1,correct,1223
7,3a,speeded_recognition,19,foil,blocked,N/A,correct,1337
7,3a,speeded_recognition,20,AC,blocked,2,correct,1380
7,3a,speeded_recognition,21,BC,intermixed,6,incorrect,1181
7,3a,speeded_recognition,22,AB,blocked,3,correct,1710
7,3a,speeded_recognition,23,AC,intermixed,4,correct,1358
7,3a,speeded_recognition,24,AC,blocked,3,correct,1445
7,3a,speeded_recognition,25,AB,intermixed,4,correct,1065
7,3a,speeded_recognition,26,BC,blocked,3,correct,1719
7,3a,speeded_recognition,27,BC,intermixed,4,incorrect,1831
7,3a,speeded_recognition,28,BC,blocked,3,correct,1363
7,3a,speeded_recognition,29,AB,intermixed,5,correct,1433
7,3a,speeded_recognition,30,BC,blocked,2,correct,1239
7,3a,speeded_recognition,31,AB,intermixed,6,correct,1749
7,3a,speeded_recognition,32,AB,blocked,2,correct,1571
7,3a,speeded_recognition,33,AC,intermixed,5,correct,1067
7,3a,speeded_recognition,34,foil,intermixed,N/A,correct,1169
7,3a,speeded_recognition,35,AB,blocked,1,correct,1107
7,3a,speeded_recognition,36,foil,blocked,N/A,incorrect,1287
7,3a,speeded_recognition,37,AB,intermixed,5,correct,1407
7,3a,speeded_recognition,38,foil,blocked,N/A,correct,1408
7,3a,speeded_recognition,39,BC,intermixed,5,correct,1492
7,3a,speeded_recognition,40,foil,intermixed,N/A,correct,1160
7,3a,speeded_recognition,41,AB,blocked,2,correct,1245
7,3a,speeded_recognition,42,AC,intermixed,4,incorrect,1740
7,3a,speeded_recognition,43,foil,intermixed,N/A,correct,815
7,3a,speeded_recognition,44,BC,blocked,1,correct,948
7,3a,speeded_recognition,45,foil,intermixed,N/A,correct,1139
7,3a,speeded_recognition,46,AB,intermixed,4,correct,1524
7,3a,speeded_recognition,47,AC,blocked,1,correct,1538
7,3a,speeded_recognition,48,BC,intermixed,6,incorrect,827
7,3a,explicit_inference,1,AC,intermixed,4,incorrect,2538
7,3a,explicit_inference,2,AC,blocked,3,incorrect,2267
7,3a,explicit_inference,3,AC,blocked,1,correct,1953
7,3a,explicit_inference,4,AC,blocked,2,incorrect,1982
7,3a,explicit_inference,5,AC,intermixed,5,correct,2084
7,3a,explicit_inference,6,AC,intermixed,6,correct,1800
7,3a,explicit_inference,7,AC,blocked,3,correct,2168
7,3a,explicit_inference,8,AC,blocked,2,incorrect,2013
7,3a,explicit_inference,9,AC,blocked,1,incorrect,2829
7,3a,explicit_inference,10,AC,intermixed,4,correct,2064
7,3a,explicit_inference,11,AC,intermixed,6,correct,1891
7,3a,explicit_inference,12,AC,intermixed,5,incorrect,1531
8,3a,speeded_recognition,1,AC,intermixed,5,correct,1239
8,3a,speeded_recognition,2,AC,blocked,1,correct,1176
8,3a,speeded_recognition,3,BC,intermixed,4,correct,1144
8,3a,speeded_recognition,4,foil,blocked,N/A,correct,1312
8,3a,speeded_recognition,5,BC,blocked,1,correct,1351
8,3a,speeded_recognition,6,BC,intermixed,5,correct,1224
8,3a,speeded_recognition,7,AC,blocked,2,incorrect,1479
8,3a,speeded_recognition,8,AC,intermixed,4,correct,1079
8,3a,speeded_recognition,9,foil,blocked,N/A,correct,1424
8,3a,speeded_recognition,10,AB,blocked,1,correct,1104
8,3a,speeded_recognition,11,BC,intermixed,5,correct,1119
8,3a,speeded_recognition,12,BC,blocked,2,correct,1127
8,3a,speeded_recognition,13,AC,intermixed,6,correct,1495
8,3a,speeded_recognition,14,AB,blocked,3,incorrect,1295
8,3a,speeded_recognition,15,BC,intermixed,4,correct,991
8,3a,speeded_recognition,16,BC,blocked,1,correct,960
8,3a,speeded_recognition,17,foil,blocked,N/A,incorrect,1159
8,3a,speeded_recognition,18,AC,intermixed,6,correct,1089
8,3a,speeded_recognition,19,AC,blocked,1,correct,1375
8,3a,speeded_recognition,20,foil,intermixed,N/A,correct,1304
8,3a,speeded_recognition,21,AB,intermixed,5,incorrect,1687
8,3a,speeded_recognition,22,foil,blocked,N/A,correct,1112
8,3a,speeded_recognition,23,AB,blocked,2,correct,1080
8,3a,speeded_recognition,24,BC,intermixed,6,correct,1238
8,3a,speeded_recognition,25,BC,blocked,3,correct,1087
8,3a,speeded_recognition,26,BC,intermixed,6,correct,863
8,3a,speeded_recognition,27,foil,blocked,N/A,correct,1176
8,3a,speeded_recognition,28,AB,blocked,1,correct,1118
8,3a,speeded_recognition,29,AB,intermixed,4,correct,836
8,3a,speeded_recognition,30,AC,blocked,3,correct,1320
8,3a,speeded_recognition,31,foil,intermixed,N/A,correct,1104
8,3a,speeded_recognition,32,AB,intermixed,6,incorrect,1263
8,3a,speeded_recognition,33,BC,blocked,2,correct,879
8,3a,speeded_recognition,34,foil,blocked,N/A,correct,1119
8,3a,speeded_recognition,35,AC,intermixed,5,correct,1199
8,3a,speeded_recognition,36,foil,intermixed,N/A,incorrect,1479
8,3a,speeded_recognition,37,AC,blocked,2,incorrect,1079
8,3a,speeded_recognition,38,foil,intermixed,N/A,incorrect,1159
8,3a,speeded_recognition,39,AC,blocked,3,correct,1120
8,3a,speeded_recognition,40,AC,intermixed,4,correct,1584
8,3a,speeded_recognition,41,AB,blocked,2,correct,1063
8,3a,speeded_recognition,42,AB,intermixed,4,correct,1208
8,3a,speeded_recognition,43,foil,intermixed,N/A,incorrect,1136
8,3a,speeded_recognition,44,BC,blocked,3,correct,928
8,3a,speeded_recognition,45,AB,intermixed,6,correct,944
8,3a,speeded_recognition,46,AB,blocked,3,incorrect,1287
8,3a,speeded_recognition,47,AB,intermixed,5,incorrect,1104
8,3a,speeded_recognition,48,foil,intermixed,N/A,incorrect,1104
8,3a,explicit_inference,1,AC,blocked,2,correct,3077
8,3a,explicit_inference,2,AC,intermixed,5,incorrect,2018
8,3a,explicit_inference,3,AC,intermixed,4,incorrect,2533
8,3a,explicit_inference,4,AC,blocked,1,correct,1726
8,3a,explicit_inference,5,AC,blocked,3,incorrect,2506
8,3a,explicit_inference,6,AC,intermixed,6,correct,1756
8,3a,explicit_inference,7,AC,blocked,1,correct,1554
8,3a,explicit_inference,8,AC,intermixed,6,incorrect,2289
8,3a,explicit_inference,9,AC,blocked,2,correct,1732
8,3a,explicit_inference,10,AC,intermixed,4,incorrect,2116
8,3a,explicit_inference,11,AC,blocked,3,correct,2584
8,3a,explicit_inference,12,AC,intermixed,5,correct,1681
9,3a,speeded_recognition,1,AB,blocked,1,incorrect,1052
9,3a,speeded_recognition,2,BC,intermixed,5,incorrect,1182
9,3a,speeded_recognition,3,foil,blocked,N/A,correct,1134
9,3a,speeded_recognition,4,BC,blocked,1,correct,1126
9,3a,speeded_recognition,5,foil,intermixed,N/A,incorrect,1709
9,3a,speeded_recognition,6,BC,blocked,1,correct,1290
9,3a,speeded_recognition,7,AB,intermixed,4,correct,942
9,3a,speeded_recognition,8,foil,intermixed,N/A,incorrect,1315
9,3a,speeded_recognition,9,AC,blocked,1,correct,906
9,3a,speeded_recognition,10,foil,blocked,N/A,correct,1375
9,3a,speeded_recognition,11,AC,intermixed,5,incorrect,1367
9,3a,speeded_recognition,12,BC,blocked,2,correct,2520
9,3a,speeded_recognition,13,AB,intermixed,5,correct,1477
9,3a,speeded_recognition,14,BC,blocked,3,correct,949
9,3a,speeded_recognition,15,foil,blocked,N/A,correct,1749
9,3a,speeded_recognition,16,BC,intermixed,6,correct,1504
9,3a,speeded_recognition,17,AB,blocked,3,correct,1613
9,3a,speeded_recognition,18,foil,blocked,N/A,correct,1487
9,3a,speeded_recognition,19,BC,intermixed,5,correct,1335
9,3a,speeded_recognition,20,AC,blocked,1,correct,937
9,3a,speeded_recognition,21,AC,intermixed,6,incorrect,1364
9,3a,speeded_recognition,22,AC,blocked,2,incorrect,1579
9,3a,speeded_recognition,23,AB,intermixed,6,correct,1566
9,3a,speeded_recognition,24,BC,blocked,3,correct,992
9,3a,speeded_recognition,25,AB,intermixed,6,correct,1813
9,3a,speeded_recognition,26,AB,blocked,1,correct,1507
9,3a,speeded_recognition,27,AC,intermixed,5,incorrect,1256
9,3a,speeded_recognition,28,BC,blocked,2,correct,1582
9,3a,speeded_recognition,29,BC,intermixed,4,incorrect,1526
9,3a,speeded_recognition,30,foil,intermixed,N/A,correct,1422
9,3a,speeded_recognition,31,AB,blocked,2,correct,1692
9,3a,speeded_recognition,32,AC,intermixed,4,correct,1673
9,3a,speeded_recognition,33,foil,intermixed,N/A,correct,1885
9,3a,speeded_recognition,34,AB,intermixed,4,correct,1189
9,3a,speeded_recognition,35,AB,blocked,2,correct,1874
9,3a,speeded_recognition,36,foil,blocked,N/A,correct,2066
9,3a,speeded_recognition,37,BC,intermixed,4,incorrect,1832
9,3a,speeded_recognition,38,AC,blocked,3,correct,1721
9,3a,speeded_recognition,39,BC,intermixed,6,correct,839
9,3a,speeded_recognition,40,AB,blocked,3,correct,1742
9,3a,speeded_recognition,41,AC,intermixed,6,incorrect,1569
9,3a,speeded_recognition,42,foil,blocked,N/A,correct,860
9,3a,speeded_recognition,43,AB,intermixed,5,correct,963
9,3a,speeded_recognition,44,foil,intermixed,N/A,incorrect,1516
9,3a,speeded_recognition,45,AC,blocked,2,correct,1150
9,3a,speeded_recognition,46,foil,intermixed,N/A,incorrect,1491
9,3a,speeded_recognition,47,AC,blocked,3,correct,2174
9,3a,speeded_recognition,48,AC,intermixed,4,incorrect,964
9,3a,explicit_inference,1,AC,blocked,3,incorrect,6010
9,3a,explicit_inference,2,AC,intermixed,5,correct,2906
9,3a,explicit_inference,3,AC,blocked,1,incorrect,3412
9,3a,explicit_inference,4,AC,blocked,2,correct,5529
9,3a,explicit_inference,5,AC,intermixed,4,incorrect,2944
9,3a,explicit_inference,6,AC,intermixed,6,correct,3365
9,3a,explicit_inference,7,AC,blocked,1,correct,3192
9,3a,explicit_inference,8,AC,intermixed,5,incorrect,2878
9,3a,explicit_inference,9,AC,intermixed,4,incorrect,3154
9,3a,explicit_inference,10,AC,blocked,2,correct,4239
9,3a,explicit_inference,11,AC,blocked,3,correct,3978
9,3a,explicit_inference,12,AC,intermixed,6,correct,2370
10,3a,speeded_recognition,1,AC,blocked,2,incorrect,858
10,3a,speeded_recognition,2,foil,intermixed,N/A,correct,1643
10,3a,speeded_recognition,3,AC,blocked,2,incorrect,1209
10,3a,speeded_recognition,4,BC,intermixed,4,correct,1284
10,3a,speeded_recognition,5,AC,blocked,3,incorrect,933
10,3a,speeded_recognition,6,foil,intermixed,N/A,incorrect,789
10,3a,speeded_recognition,7,BC,blocked,1,incorrect,1186
10,3a,speeded_recognition,8,AC,intermixed,5,incorrect,969
10,3a,speeded_recognition,9,AB,blocked,1,correct,1172
10,3a,speeded_recognition,10,foil,blocked,N/A,incorrect,3334
10,3a,speeded_recognition,11,BC,intermixed,5,correct,1923
10,3a,speeded_recognition,12,foil,intermixed,N/A,incorrect,829
10,3a,speeded_recognition,13,AC,blocked,1,incorrect,1383
10,3a,speeded_recognition,14,foil,blocked,N/A,incorrect,803
10,3a,speeded_recognition,15,BC,intermixed,5,correct,731
10,3a,speeded_recognition,16,BC,blocked,2,correct,749
10,3a,speeded_recognition,17,BC,intermixed,6,incorrect,682
10,3a,speeded_recognition,18,BC,blocked,2,correct,480
10,3a,speeded_recognition,19,AC,intermixed,6,incorrect,759
10,3a,speeded_recognition,20,AB,blocked,3,correct,635
10,3a,speeded_recognition,21,AB,intermixed,6,correct,578
10,3a,speeded_recognition,22,foil,blocked,N/A,incorrect,560
10,3a,speeded_recognition,23,AC,intermixed,5,incorrect,515
10,3a,speeded_recognition,24,AB,blocked,1,correct,1900
10,3a,speeded_recognition,25,foil,blocked,N/A,incorrect,809
10,3a,speeded_recognition,26,AB,intermixed,4,correct,1143
10,3a,speeded_recognition,27,AB,blocked,2,correct,1680
10,3a,speeded_recognition,28,AC,intermixed,4,incorrect,1133
10,3a,speeded_recognition,29,AB,blocked,2,correct,494
10,3a,speeded_recognition,30,foil,blocked,N/A,incorrect,1686
10,3a,speeded_recognition,31,AB,intermixed,6,N/A,N/A
10,3a,speeded_recognition,32,BC,blocked,3,correct,494
10,3a,speeded_recognition,33,AC,intermixed,6,incorrect,830
10,3a,speeded_recognition,34,AC,blocked,1,incorrect,760
10,3a,speeded_recognition,35,AB,intermixed,5,correct,1561
10,3a,speeded_recognition,36,BC,blocked,3,correct,551
10,3a,speeded_recognition,37,BC,intermixed,4,correct,614
10,3a,speeded_recognition,38,AB,blocked,3,correct,642
10,3a,speeded_recognition,39,BC,intermixed,6,correct,1531
10,3a,speeded_recognition,40,foil,intermixed,N/A,incorrect,583
10,3a,speeded_recognition,41,BC,blocked,1,correct,568
10,3a,speeded_recognition,42,AB,intermixed,5,correct,597
10,3a,speeded_recognition,43,foil,blocked,N/A,incorrect,612
10,3a,speeded_recognition,44,AB,intermixed,4,correct,1561
10,3a,speeded_recognition,45,AC,blocked,3,incorrect,990
10,3a,speeded_recognition,46,foil,intermixed,N/A,N/A,N/A
10,3a,speeded_recognition,47,foil,intermixed,N/A,incorrect,656
10,3a,speeded_recognition,48,AC,intermixed,4,N/A,N/A
10,3a,explicit_inference,1,AC,intermixed,5,correct,8068
10,3a,explicit_inference,2,AC,blocked,3,incorrect,5372
10,3a,explicit_inference,3,AC,intermixed,6,incorrect,4688
10,3a,explicit_inference,4,AC,blocked,1,correct,3854
10,3a,explicit_inference,5,AC,intermixed,4,incorrect,3489
10,3a,explicit_inference,6,AC,blocked,2,correct,3959
10,3a,explicit_inference,7,AC,blocked,2,incorrect,4189
10,3a,explicit_inference,8,AC,intermixed,4,correct,4863
10,3a,explicit_inference,9,AC,intermixed,6,incorrect,4083
10,3a,explicit_inference,10,AC,blocked,1,incorrect,3863
10,3a,explicit_inference,11,AC,intermixed,5,incorrect,3440
10,3a,explicit_inference,12,AC,blocked,3,incorrect,4740
11,3a,speeded_recognition,1,AB,blocked,2,correct,1145
11,3a,speeded_recognition,2,BC,intermixed,4,incorrect,988
11,3a,speeded_recognition,3,BC,blocked,3,correct,1231
11,3a,speeded_recognition,4,foil,intermixed,N/A,incorrect,1138
11,3a,speeded_recognition,5,AB,intermixed,4,correct,1158
11,3a,speeded_recognition,6,AB,blocked,1,correct,1164
11,3a,speeded_recognition,7,foil,intermixed,N/A,correct,1053
11,3a,speeded_recognition,8,BC,blocked,2,correct,1147
11,3a,speeded_recognition,9,AB,intermixed,5,correct,1064
11,3a,speeded_recognition,10,foil,blocked,N/A,correct,1177
11,3a,speeded_recognition,11,BC,intermixed,4,correct,1313
11,3a,speeded_recognition,12,foil,blocked,N/A,incorrect,993
11,3a,speeded_recognition,13,AB,intermixed,4,correct,1134
11,3a,speeded_recognition,14,BC,blocked,3,correct,1414
11,3a,speeded_recognition,15,AC,intermixed,5,correct,1252
11,3a,speeded_recognition,16,AB,blocked,1,correct,980
11,3a,speeded_recognition,17,AC,intermixed,5,correct,1171
11,3a,speeded_recognition,18,foil,blocked,N/A,correct,1305
11,3a,speeded_recognition,19,BC,blocked,1,correct,1451
11,3a,speeded_recognition,20,foil,intermixed,N/A,incorrect,1198
11,3a,speeded_recognition,21,AB,intermixed,5,incorrect,1087
11,3a,speeded_recognition,22,BC,blocked,1,correct,978
11,3a,speeded_recognition,23,foil,intermixed,N/A,incorrect,1044
11,3a,speeded_recognition,24,foil,blocked,N/A,incorrect,1129
11,3a,speeded_recognition,25,AC,blocked,2,incorrect,1350
11,3a,speeded_recognition,26,AC,intermixed,4,incorrect,1164
11,3a,speeded_recognition,27,AC,blocked,1,correct,1288
11,3a,speeded_recognition,28,AB,intermixed,6,correct,1187
11,3a,speeded_recognition,29,foil,blocked,N/A,incorrect,1157
11,3a,speeded_recognition,30,BC,intermixed,5,correct,1118
11,3a,speeded_recognition,31,AC,blocked,1,incorrect,1233
11,3a,speeded_recognition,32,BC,intermixed,5,incorrect,1057
11,3a,speeded_recognition,33,AC,blocked,3,incorrect,1143
11,3a,speeded_recognition,34,AC,intermixed,6,incorrect,1047
11,3a,speeded_recognition,35,foil,intermixed,N/A,incorrect,1062
11,3a,speeded_recognition,36,AB,blocked,3,correct,1106
11,3a,speeded_recognition,37,AC,intermixed,6,incorrect,1357
11,3a,speeded_recognition,38,AC,blocked,2,correct,1118
11,3a,speeded_recognition,39,BC,intermixed,6,correct,1449
11,3a,speeded_recognition,40,foil,intermixed,N/A,correct,974
11,3a,speeded_recognition,41,BC,blocked,2,correct,964
11,3a,speeded_recognition,42,AC,intermixed,4,incorrect,880
11,3a,speeded_recognition,43,AC,blocked,3,correct,1430
11,3a,speeded_recognition,44,BC,intermixed,6,correct,780
11,3a,speeded_recognition,45,AB,blocked,2,incorrect,1014
11,3a,speeded_recognition,46,foil,blocked,N/A,correct,1172
11,3a,speeded_recognition,47,AB,intermixed,6,correct,935
11,3a,speeded_recognition,48,AB,blocked,3,correct,901
11,3a,explicit_inference,1,AC,blocked,3,incorrect,7367
11,3a,explicit_inference,2,AC,intermixed,5,incorrect,3086
11,3a,explicit_inference,3,AC,blocked,1,correct,2513
11,3a,explicit_inference,4,AC,intermixed,6,correct,1789
11,3a,explicit_inference,5,AC,intermixed,4,incorrect,2345
11,3a,explicit_inference,6,AC,blocked,2,correct,2990
11,3a,explicit_inference,7,AC,blocked,3,incorrect,2883
11,3a,explicit_inference,8,AC,intermixed,6,incorrect,2082
11,3a,explicit_inference,9,AC,intermixed,5,correct,2419
11,3a,explicit_inference,10,AC,blocked,1,incorrect,2497
11,3a,explicit_inference,11,AC,blocked,2,correct,2666
11,3a,explicit_inference,12,AC,intermixed,4,N/A,N/A
12,3a,speeded_recognition,1,AC,blocked,1,incorrect,1796
12,3a,speeded_recognition,2,AC,intermixed,6,incorrect,1506
12,3a,speeded_recognition,3,AC,blocked,1,incorrect,1610
12,3a,speeded_recognition,4,BC,intermixed,4,incorrect,1099
12,3a,speeded_recognition,5,foil,blocked,N/A,correct,1332
12,3a,speeded_recognition,6,BC,blocked,2,correct,1445
12,3a,speeded_recognition,7,AC,intermixed,6,incorrect,1273
12,3a,speeded_recognition,8,AC,blocked,3,correct,1415
12,3a,speeded_recognition,9,foil,intermixed,N/A,correct,1388
12,3a,speeded_recognition,10,AB,intermixed,4,correct,892
12,3a,speeded_recognition,11,AB,blocked,1,incorrect,1316
12,3a,speeded_recognition,12,AB,intermixed,5,correct,737
12,3a,speeded_recognition,13,foil,blocked,N/A,correct,1470
12,3a,speeded_recognition,14,AB,blocked,2,correct,1553
12,3a,speeded_recognition,15,AC,intermixed,4,incorrect,1744
12,3a,speeded_recognition,16,foil,intermixed,N/A,incorrect,1154
12,3a,speeded_recognition,17,foil,blocked,N/A,correct,1025
12,3a,speeded_recognition,18,BC,intermixed,4,correct,1014
12,3a,speeded_recognition,19,BC,blocked,3,correct,999
12,3a,speeded_recognition,20,AC,intermixed,5,incorrect,1554
12,3a,speeded_recognition,21,AC,blocked,3,incorrect,1189
12,3a,speeded_recognition,22,AB,intermixed,6,correct,1109
12,3a,speeded_recognition,23,BC,blocked,2,incorrect,1269
12,3a,speeded_recognition,24,foil,blocked,N/A,incorrect,1187
12,3a,speeded_recognition,25,AC,blocked,2,correct,1240
12,3a,speeded_recognition,26,AC,intermixed,4,correct,1366
12,3a,speeded_recognition,27,foil,intermixed,N/A,incorrect,883
12,3a,speeded_recognition,28,AB,blocked,1,correct,990
12,3a,speeded_recognition,29,BC,intermixed,6,incorrect,1126
12,3a,speeded_recognition,30,AB,blocked,3,correct,1328
12,3a,speeded_recognition,31,AB,intermixed,5,incorrect,1211
12,3a,speeded_recognition,32,foil,intermixed,N/A,correct,940
12,3a,speeded_recognition,33,AB,blocked,3,correct,910
12,3a,speeded_recognition,34,AB,intermixed,6,correct,812
12,3a,speeded_recognition,35,foil,intermixed,N/A,incorrect,945
12,3a,speeded_recognition,36,BC,blocked,1,correct,941
12,3a,speeded_recognition,37,BC,intermixed,6,correct,1183
12,3a,speeded_recognition,38,AC,blocked,2,incorrect,1294
12,3a,speeded_recognition,39,AC,intermixed,5,incorrect,1103
12,3a,speeded_recognition,40,AB,blocked,2,correct,937
12,3a,speeded_recognition,41,foil,blocked,N/A,correct,1262
12,3a,speeded_recognition,42,AB,intermixed,4,correct,836
12,3a,speeded_recognition,43,BC,blocked,3,correct,913
12,3a,speeded_recognition,44,foil,blocked,N/A,incorrect,702
12,3a,speeded_recognition,45,BC,intermixed,5,incorrect,950
12,3a,speeded_recognition,46,foil,intermixed,N/A,correct,1040
12,3a,speeded_recognition,47,BC,blocked,1,correct,794
12,3a,speeded_recognition,48,BC,intermixed,5,incorrect,1169
12,3a,explicit_inference,1,AC,intermixed,4,correct,5725
12,3a,explicit_inference,2,AC,blocked,1,incorrect,2184
12,3a,explicit_inference,3,AC,blocked,3,correct,2973
12,3a,explicit_inference,4,AC,intermixed,5,correct,1493
12,3a,explicit_inference,5,AC,blocked,2,correct,2061
12,3a,explicit_inference,6,AC,intermixed,6,correct,3521
12,3a,explicit_inference,7,AC,intermixed,6,incorrect,2569
12,3a,explicit_inference,8,AC,blocked,2,correct,2233
12,3a,explicit_inference,9,AC,intermixed,5,correct,2081
12,3a,explicit_inference,10,AC,blocked,3,incorrect,2294
12,3a,explicit_inference,11,AC,blocked,1,incorrect,3461
12,3a,explicit_inference,12,AC,intermixed,4,incorrect,1339
13,3a,speeded_recognition,1,AB,blocked,1,correct,1118
13,3a,speeded_recognition,2,BC,intermixed,6,incorrect,1110
13,3a,speeded_recognition,3,foil,intermixed,N/A,correct,1063
13,3a,speeded_recognition,4,AC,blocked,2,correct,1177
13,3a,speeded_recognition,5,AC,intermixed,4,incorrect,1132
13,3a,speeded_recognition,6,BC,blocked,2,correct,1379
13,3a,speeded_recognition,7,foil,intermixed,N/A,incorrect,1263
13,3a,speeded_recognition,8,BC,blocked,3,incorrect,1372
13,3a,speeded_recognition,9,foil,blocked,N/A,incorrect,1074
13,3a,speeded_recognition,10,AC,intermixed,5,incorrect,1072
13,3a,speeded_recognition,11,AC,blocked,1,incorrect,1179
13,3a,speeded_recognition,12,BC,intermixed,4,correct,857
13,3a,speeded_recognition,13,AB,blocked,3,correct,1045
13,3a,speeded_recognition,14,AB,intermixed,4,correct,934
13,3a,speeded_recognition,15,foil,intermixed,N/A,correct,1007
13,3a,speeded_recognition,16,AB,intermixed,6,incorrect,1381
13,3a,speeded_recognition,17,AC,blocked,3,correct,1040
13,3a,speeded_recognition,18,foil,intermixed,N/A,incorrect,1028
13,3a,speeded_recognition,19,foil,blocked,N/A,correct,1057
13,3a,speeded_recognition,20,AB,blocked,1,correct,879
13,3a,speeded_recognition,21,AC,intermixed,4,correct,1247
13,3a,speeded_recognition,22,AB,blocked,2,correct,1038
13,3a,speeded_recognition,23,foil,blocked,N/A,correct,1229
13,3a,speeded_recognition,24,AB,intermixed,5,correct,1173
13,3a,speeded_recognition,25,AB,blocked,2,correct,1044
13,3a,speeded_recognition,26,AB,intermixed,4,correct,790
13,3a,speeded_recognition,27,BC,blocked,1,incorrect,951
13,3a,speeded_recognition,28,foil,intermixed,N/A,incorrect,1168
13,3a,speeded_recognition,29,AC,blocked,2,incorrect,1245
13,3a,speeded_recognition,30,AC,intermixed,6,incorrect,1052
13,3a,speeded_recognition,31,foil,blocked,N/A,correct,795
13,3a,speeded_recognition,32,AB,intermixed,5,correct,998
13,3a,speeded_recognition,33,foil,intermixed,N/A,correct,876
13,3a,speeded_recognition,34,BC,blocked,2,correct,1098
13,3a,speeded_recognition,35,AC,intermixed,5,correct,1215
13,3a,speeded_recognition,36,AB,blocked,3,correct,964
13,3a,speeded_recognition,37,AC,intermixed,6,incorrect,974
13,3a,speeded_recognition,38,AC,blocked,1,correct,910
13,3a,speeded_recognition,39,BC,intermixed,5,correct,950
13,3a,speeded_recognition,40,foil,blocked,N/A,correct,784
13,3a,speeded_recognition,41,BC,intermixed,5,correct,976
13,3a,speeded_recognition,42,BC,blocked,1,incorrect,735
13,3a,speeded_recognition,43,BC,intermixed,4,correct,819
13,3a,speeded_recognition,44,foil,blocked,N/A,correct,829
13,3a,speeded_recognition,45,BC,blocked,3,incorrect,729
13,3a,speeded_recognition,46,BC,intermixed,6,correct,1093
13,3a,speeded_recognition,47,AC,blocked,3,correct,920
13,3a,speeded_recognition,48,AB,intermixed,6,incorrect,1375
13,3a,explicit_inference,1,AC,blocked,2,correct,1596
13,3a,explicit_inference,2,AC,intermixed,6,correct,2109
13,3a,explicit_inference,3,AC,intermixed,5,correct,1460
13,3a,explicit_inference,4,AC,intermixed,4,correct,2727
13,3a,explicit_inference,5,AC,blocked,1,incorrect,3085
13,3a,explicit_inference,6,AC,blocked,3,correct,2626
13,3a,explicit_inference,7,AC,intermixed,6,correct,1713
13,3a,explicit_inference,8,AC,intermixed,5,correct,1398
13,3a,explicit_inference,9,AC,intermixed,4,correct,1348
13,3a,explicit_inference,10,AC,blocked,3,correct,1866
13,3a,explicit_inference,11,AC,blocked,2,correct,2170
13,3a,explicit_inference,12,AC,blocked,1,incorrect,2515
14,3a,speeded_recognition,1,AB,blocked,1,incorrect,1259
14,3a,speeded_recognition,2,foil,blocked,N/A,correct,991
14,3a,speeded_recognition,3,AC,intermixed,5,correct,1027
14,3a,speeded_recognition,4,AB,blocked,3,correct,828
14,3a,speeded_recognition,5,BC,intermixed,5,correct,1019
14,3a,speeded_recognition,6,foil,intermixed,N/A,incorrect,1019
14,3a,speeded_recognition,7,foil,intermixed,N/A,correct,1102
14,3a,speeded_recognition,8,foil,intermixed,N/A,correct,1268
14,3a,speeded_recognition,9,AC,blocked,1,correct,879
14,3a,speeded_recognition,10,AB,intermixed,5,correct,810
14,3a,speeded_recognition,11,foil,blocked,N/A,incorrect,1100
14,3a,speeded_recognition,12,BC,blocked,3,correct,1347
14,3a,speeded_recognition,13,BC,intermixed,5,correct,977
14,3a,speeded_recognition,14,AC,blocked,2,correct,1076
14,3a,speeded_recognition,15,BC,intermixed,6,correct,1084
14,3a,speeded_recognition,16,AB,blocked,2,correct,945
14,3a,speeded_recognition,17,foil,intermixed,N/A,correct,855
14,3a,speeded_recognition,18,AC,intermixed,5,incorrect,1242
14,3a,speeded_recognition,19,BC,blocked,1,correct,851
14,3a,speeded_recognition,20,AC,intermixed,6,correct,831
14,3a,speeded_recognition,21,foil,intermixed,N/A,incorrect,1308
14,3a,speeded_recognition,22,foil,blocked,N/A,correct,1019
14,3a,speeded_recognition,23,AC,intermixed,4,incorrect,931
14,3a,speeded_recognition,24,foil,blocked,N/A,correct,878
14,3a,speeded_recognition,25,AB,blocked,2,correct,954
14,3a,speeded_recognition,26,foil,intermixed,N/A,incorrect,1029
14,3a,speeded_recognition,27,AC,blocked,3,incorrect,1220
14,3a,speeded_recognition,28,AB,intermixed,4,correct,1064
14,3a,speeded_recognition,29,AB,blocked,3,correct,1186
14,3a,speeded_recognition,30,AC,intermixed,4,correct,1147
14,3a,speeded_recognition,31,BC,blocked,2,correct,1307
14,3a,speeded_recognition,32,AC,intermixed,6,correct,943
14,3a,speeded_recognition,33,foil,blocked,N/A,correct,1023
14,3a,speeded_recognition,34,BC,blocked,2,correct,982
14,3a,speeded_recognition,35,BC,intermixed,6,incorrect,1046
14,3a,speeded_recognition,36,foil,blocked,N/A,correct,1030
14,3a,speeded_recognition,37,BC,blocked,1,correct,687
14,3a,speeded_recognition,38,AB,intermixed,6,correct,632
14,3a,speeded_recognition,39,AC,blocked,3,correct,1019
14,3a,speeded_recognition,40,AB,intermixed,4,correct,847
14,3a,speeded_recognition,41,AC,blocked,1,correct,647
14,3a,speeded_recognition,42,AB,intermixed,5,correct,896
14,3a,speeded_recognition,43,AC,blocked,2,correct,1094
14,3a,speeded_recognition,44,BC,intermixed,4,correct,806
14,3a,speeded_recognition,45,AB,blocked,1,incorrect,987
14,3a,speeded_recognition,46,AB,intermixed,6,correct,879
14,3a,speeded_recognition,47,BC,blocked,3,correct,1108
14,3a,speeded_recognition,48,BC,intermixed,4,correct,842
14,3a,explicit_inference,1,AC,intermixed,4,incorrect,4680
14,3a,explicit_inference,2,AC,intermixed,6,correct,2272
14,3a,explicit_inference,3,AC,intermixed,5,correct,1791
14,3a,explicit_inference,4,AC,blocked,3,correct,2081
14,3a,explicit_inference,5,AC,blocked,2,incorrect,2345
14,3a,explicit_inference,6,AC,blocked,1,incorrect,3131
14,3a,explicit_inference,7,AC,intermixed,5,correct,1436
14,3a,explicit_inference,8,AC,intermixed,4,correct,2731
14,3a,explicit_inference,9,AC,blocked,1,incorrect,1755
14,3a,explicit_inference,10,AC,intermixed,6,correct,2195
14,3a,explicit_inference,11,AC,blocked,2,incorrect,1956
14,3a,explicit_inference,12,AC,blocked,3,correct,1329
15,3a,speeded_recognition,1,BC,blocked,3,correct,2044
15,3a,speeded_recognition,2,foil,blocked,N/A,incorrect,2362
15,3a,speeded_recognition,3,BC,intermixed,4,correct,1419
15,3a,speeded_recognition,4,AC,blocked,2,incorrect,1241
15,3a,speeded_recognition,5,AC,intermixed,4,correct,1761
15,3a,speeded_recognition,6,foil,blocked,N/A,correct,1980
15,3a,speeded_recognition,7,BC,blocked,2,correct,1657
15,3a,speeded_recognition,8,foil,blocked,N/A,correct,1763
15,3a,speeded_recognition,9,BC,intermixed,6,correct,1705
15,3a,speeded_recognition,10,BC,blocked,1,incorrect,1852
15,3a,speeded_recognition,11,AB,intermixed,6,correct,1687
15,3a,speeded_recognition,12,BC,blocked,1,correct,1995
15,3a,speeded_recognition,13,foil,blocked,N/A,correct,1911
15,3a,speeded_recognition,14,AB,intermixed,5,correct,1556
15,3a,speeded_recognition,15,foil,intermixed,N/A,correct,1863
15,3a,speeded_recognition,16,AC,blocked,3,correct,1490
15,3a,speeded_recognition,17,BC,intermixed,4,correct,1232
15,3a,speeded_recognition,18,AB,blocked,1,correct,1092
15,3a,speeded_recognition,19,AB,intermixed,4,incorrect,1453
15,3a,speeded_recognition,20,foil,blocked,N/A,correct,1496
15,3a,speeded_recognition,21,foil,intermixed,N/A,correct,1293
15,3a,speeded_recognition,22,AC,intermixed,5,incorrect,1145
15,3a,speeded_recognition,23,AC,blocked,1,correct,1316
15,3a,speeded_recognition,24,foil,intermixed,N/A,correct,1697
15,3a,speeded_recognition,25,BC,blocked,2,correct,1439
15,3a,speeded_recognition,26,foil,intermixed,N/A,incorrect,1138
15,3a,speeded_recognition,27,AC,intermixed,4,correct,1054
15,3a,speeded_recognition,28,BC,blocked,3,correct,1272
15,3a,speeded_recognition,29,AC,intermixed,6,incorrect,1245
15,3a,speeded_recognition,30,AC,blocked,3,correct,1159
15,3a,speeded_recognition,31,AB,intermixed,4,incorrect,971
15,3a,speeded_recognition,32,AC,blocked,1,incorrect,1376
15,3a,speeded_recognition,33,AC,intermixed,6,incorrect,1485
15,3a,speeded_recognition,34,AB,blocked,2,correct,1350
15,3a,speeded_recognition,35,BC,intermixed,5,correct,1230
15,3a,speeded_recognition,36,AB,blocked,1,correct,1011
15,3a,speeded_recognition,37,BC,intermixed,5,correct,1378
15,3a,speeded_recognition,38,foil,blocked,N/A,correct,1111
15,3a,speeded_recognition,39,AB,blocked,3,correct,1492
15,3a,speeded_recognition,40,AC,intermixed,5,incorrect,1186
15,3a,speeded_recognition,41,AC,blocked,2,incorrect,1365
15,3a,speeded_recognition,42,AB,intermixed,6,correct,1125
15,3a,speeded_recognition,43,AB,blocked,3,incorrect,1193
15,3a,speeded_recognition,44,BC,intermixed,6,correct,1181
15,3a,speeded_recognition,45,AB,blocked,2,correct,1242
15,3a,speeded_recognition,46,foil,intermixed,N/A,correct,1003
15,3a,speeded_recognition,47,AB,intermixed,5,correct,1156
15,3a,speeded_recognition,48,foil,intermixed,N/A,incorrect,1142
15,3a,explicit_inference,1,AC,intermixed,4,correct,3973
15,3a,explicit_inference,2,AC,intermixed,6,incorrect,3382
15,3a,explicit_inference,3,AC,blocked,1,correct,3591
15,3a,explicit_inference,4,AC,blocked,3,correct,2374
15,3a,explicit_inference,5,AC,intermixed,5,correct,1893
15,3a,explicit_inference,6,AC,blocked,2,incorrect,4042
15,3a,explicit_inference,7,AC,intermixed,4,correct,2093
15,3a,explicit_inference,8,AC,intermixed,6,correct,3831
15,3a,explicit_inference,9,AC,blocked,2,correct,3676
15,3a,explicit_inference,10,AC,intermixed,5,correct,1442
15,3a,explicit_inference,11,AC,blocked,1,correct,1535
15,3a,explicit_inference,12,AC,blocked,3,incorrect,3727
16,3a,speeded_recognition,1,AB,blocked,1,correct,341
16,3a,speeded_recognition,2,AC,intermixed,6,incorrect,175
16,3a,speeded_recognition,3,foil,blocked,N/A,incorrect,711
16,3a,speeded_recognition,4,AB,intermixed,5,correct,232
16,3a,speeded_recognition,5,BC,blocked,2,correct,543
16,3a,speeded_recognition,6,foil,intermixed,N/A,incorrect,1268
16,3a,speeded_recognition,7,AB,blocked,3,correct,3055
16,3a,speeded_recognition,8,BC,intermixed,6,correct,295
16,3a,speeded_recognition,9,foil,blocked,N/A,incorrect,1620
16,3a,speeded_recognition,10,AB,blocked,1,correct,255
16,3a,speeded_recognition,11,BC,intermixed,4,correct,366
16,3a,speeded_recognition,12,foil,intermixed,N/A,incorrect,384
16,3a,speeded_recognition,13,AB,blocked,3,correct,1134
16,3a,speeded_recognition,14,AC,intermixed,5,N/A,N/A
16,3a,speeded_recognition,15,AC,blocked,2,incorrect,295
16,3a,speeded_recognition,16,foil,intermixed,N/A,incorrect,447
16,3a,speeded_recognition,17,AB,intermixed,6,correct,1039
16,3a,speeded_recognition,18,BC,blocked,1,correct,33
16,3a,speeded_recognition,19,foil,blocked,N/A,N/A,N/A
16,3a,speeded_recognition,20,BC,intermixed,4,correct,151
16,3a,speeded_recognition,21,AC,blocked,3,correct,519
16,3a,speeded_recognition,22,foil,intermixed,N/A,correct,112
16,3a,speeded_recognition,23,AC,intermixed,4,correct,498
16,3a,speeded_recognition,24,AC,blocked,2,incorrect,372
16,3a,speeded_recognition,25,AB,intermixed,4,correct,158
16,3a,speeded_recognition,26,BC,blocked,2,N/A,N/A
16,3a,speeded_recognition,27,foil,blocked,N/A,incorrect,399
16,3a,speeded_recognition,28,BC,intermixed,5,correct,577
16,3a,speeded_recognition,29,foil,blocked,N/A,incorrect,565
16,3a,speeded_recognition,30,AC,intermixed,6,correct,552
16,3a,speeded_recognition,31,BC,blocked,3,incorrect,551
16,3a,speeded_recognition,32,AC,intermixed,5,incorrect,304
16,3a,speeded_recognition,33,AC,blocked,1,incorrect,864
16,3a,speeded_recognition,34,BC,intermixed,5,correct,223
16,3a,speeded_recognition,35,foil,intermixed,N/A,incorrect,374
16,3a,speeded_recognition,36,BC,blocked,3,correct,797
16,3a,speeded_recognition,37,AB,intermixed,5,correct,124
16,3a,speeded_recognition,38,AC,blocked,1,incorrect,671
16,3a,speeded_recognition,39,AC,intermixed,4,incorrect,718
16,3a,speeded_recognition,40,foil,blocked,N/A,N/A,N/A
16,3a,speeded_recognition,41,AB,blocked,2,correct,338
16,3a,speeded_recognition,42,BC,intermixed,6,correct,523
16,3a,speeded_recognition,43,foil,intermixed,N/A,incorrect,136
16,3a,speeded_recognition,44,AC,blocked,3,incorrect,567
16,3a,speeded_recognition,45,AB,intermixed,4,correct,1391
16,3a,speeded_recognition,46,AB,blocked,2,incorrect,479
16,3a,speeded_recognition,47,AB,intermixed,6,correct,391
16,3a,speeded_recognition,48,BC,blocked,1,correct,383
16,3a,explicit_inference,1,AC,blocked,3,correct,3594
16,3a,explicit_inference,2,AC,intermixed,4,correct,717
16,3a,explicit_inference,3,AC,intermixed,5,incorrect,757
16,3a,explicit_inference,4,AC,blocked,2,correct,1060
16,3a,explicit_inference,5,AC,intermixed,6,correct,1182
16,3a,explicit_inference,6,AC,blocked,1,correct,1485
16,3a,explicit_inference,7,AC,blocked,3,incorrect,1543
16,3a,explicit_inference,8,AC,intermixed,5,correct,1069
16,3a,explicit_inference,9,AC,blocked,1,incorrect,1363
16,3a,explicit_inference,10,AC,intermixed,6,incorrect,780
16,3a,explicit_inference,11,AC,blocked,2,correct,1163
16,3a,explicit_inference,12,AC,intermixed,4,correct,2364
17,3a,speeded_recognition,1,BC,blocked,2,correct,1400
17,3a,speeded_recognition,2,AC,intermixed,5,incorrect,1472
17,3a,speeded_recognition,3,foil,intermixed,N/A,incorrect,1493
17,3a,speeded_recognition,4,AC,blocked,2,correct,1089
17,3a,speeded_recognition,5,foil,intermixed,N/A,incorrect,1739
17,3a,speeded_recognition,6,AB,blocked,2,incorrect,1298
17,3a,speeded_recognition,7,AC,intermixed,4,incorrect,1647
17,3a,speeded_recognition,8,AC,blocked,3,correct,1661
17,3a,speeded_recognition,9,AB,intermixed,6,incorrect,1427
17,3a,speeded_recognition,10,AB,blocked,1,incorrect,1356
17,3a,speeded_recognition,11,AB,intermixed,4,correct,1259
17,3a,speeded_recognition,12,foil,blocked,N/A,correct,1381
17,3a,speeded_recognition,13,BC,blocked,3,incorrect,1388
17,3a,speeded_recognition,14,AC,intermixed,6,incorrect,1142
17,3a,speeded_recognition,15,foil,blocked,N/A,correct,1506
17,3a,speeded_recognition,16,foil,blocked,N/A,correct,1988
17,3a,speeded_recognition,17,BC,intermixed,5,correct,1091
17,3a,speeded_recognition,18,AC,blocked,1,correct,1420
17,3a,speeded_recognition,19,foil,blocked,N/A,correct,1392
17,3a,speeded_recognition,20,AC,intermixed,4,incorrect,1204
17,3a,speeded_recognition,21,AC,blocked,2,correct,1160
17,3a,speeded_recognition,22,BC,intermixed,4,correct,1113
17,3a,speeded_recognition,23,AC,blocked,3,correct,1282
17,3a,speeded_recognition,24,AC,intermixed,5,incorrect,1138
17,3a,speeded_recognition,25,AB,blocked,1,correct,1312
17,3a,speeded_recognition,26,foil,blocked,N/A,correct,1200
17,3a,speeded_recognition,27,AB,intermixed,5,correct,867
17,3a,speeded_recognition,28,AB,blocked,2,correct,1359
17,3a,speeded_recognition,29,AB,intermixed,5,correct,1099
17,3a,speeded_recognition,30,AB,blocked,3,correct,1470
17,3a,speeded_recognition,31,BC,intermixed,6,correct,1170
17,3a,speeded_recognition,32,BC,blocked,3,incorrect,1590
17,3a,speeded_recognition,33,BC,intermixed,5,correct,974
17,3a,speeded_recognition,34,foil,blocked,N/A,correct,1100
17,3a,speeded_recognition,35,BC,blocked,1,correct,1153
17,3a,speeded_recognition,36,foil,intermixed,N/A,incorrect,1156
17,3a,speeded_recognition,37,AB,intermixed,6,correct,1201
17,3a,speeded_recognition,38,foil,intermixed,N/A,incorrect,1344
17,3a,speeded_recognition,39,BC,blocked,1,correct,1088
17,3a,speeded_recognition,40,AC,intermixed,6,incorrect,1069
17,3a,speeded_recognition,41,BC,blocked,2,correct,1364
17,3a,speeded_recognition,42,foil,intermixed,N/A,incorrect,1131
17,3a,speeded_recognition,43,BC,intermixed,4,correct,1151
17,3a,speeded_recognition,44,foil,intermixed,N/A,incorrect,1287
17,3a,speeded_recognition,45,AC,blocked,1,correct,901
17,3a,speeded_recognition,46,AB,intermixed,4,correct,941
17,3a,speeded_recognition,47,AB,blocked,3,correct,1469
17,3a,speeded_recognition,48,BC,intermixed,6,correct,1112
17,3a,explicit_inference,1,AC,blocked,1,incorrect,1984
17,3a,explicit_inference,2,AC,intermixed,6,incorrect,3136
17,3a,explicit_inference,3,AC,blocked,3,correct,4083
17,3a,explicit_inference,4,AC,blocked,2,incorrect,3753
17,3a,explicit_inference,5,AC,intermixed,4,correct,4034
17,3a,explicit_inference,6,AC,intermixed,5,incorrect,3489
17,3a,explicit_inference,7,AC,blocked,2,incorrect,4142
17,3a,explicit_inference,8,AC,blocked,3,incorrect,2400
17,3a,explicit_inference,9,AC,intermixed,5,correct,2694
17,3a,explicit_inference,10,AC,intermixed,6,incorrect,3766
17,3a,explicit_inference,11,AC,blocked,1,incorrect,2163
17,3a,explicit_inference,12,AC,intermixed,4,correct,2935
18,3a,speeded_recognition,1,AB,intermixed,6,incorrect,1471
18,3a,speeded_recognition,2,AC,blocked,3,correct,1479
18,3a,speeded_recognition,3,foil,intermixed,N/A,correct,2152
18,3a,speeded_recognition,4,BC,blocked,1,correct,1431
18,3a,speeded_recognition,5,BC,intermixed,6,correct,1108
18,3a,speeded_recognition,6,AC,blocked,3,correct,1236
18,3a,speeded_recognition,7,foil,blocked,N/A,correct,2215
18,3a,speeded_recognition,8,foil,blocked,N/A,correct,1869
18,3a,speeded_recognition,9,foil,intermixed,N/A,incorrect,1036
18,3a,speeded_recognition,10,foil,intermixed,N/A,correct,1570
18,3a,speeded_recognition,11,AB,blocked,1,incorrect,1650
18,3a,speeded_recognition,12,foil,intermixed,N/A,correct,1597
18,3a,speeded_recognition,13,AB,intermixed,5,correct,1281
18,3a,speeded_recognition,14,BC,blocked,2,correct,1242
18,3a,speeded_recognition,15,AC,intermixed,4,incorrect,2143
18,3a,speeded_recognition,16,foil,blocked,N/A,correct,1554
18,3a,speeded_recognition,17,AC,intermixed,4,incorrect,2141
18,3a,speeded_recognition,18,BC,blocked,1,correct,1633
18,3a,speeded_recognition,19,AB,intermixed,4,correct,1950
18,3a,speeded_recognition,20,foil,blocked,N/A,correct,1522
18,3a,speeded_recognition,21,BC,intermixed,5,correct,1225
18,3a,speeded_recognition,22,AC,blocked,2,incorrect,1437
18,3a,speeded_recognition,23,BC,intermixed,4,correct,1151
18,3a,speeded_recognition,24,foil,blocked,N/A,correct,1618
18,3a,speeded_recognition,25,BC,blocked,3,correct,2568
18,3a,speeded_recognition,26,BC,intermixed,5,correct,1069
18,3a,speeded_recognition,27,AB,blocked,3,incorrect,1190
18,3a,speeded_recognition,28,AC,intermixed,5,incorrect,926
18,3a,speeded_recognition,29,AC,blocked,2,incorrect,2406
18,3a,speeded_recognition,30,BC,intermixed,6,correct,1044
18,3a,speeded_recognition,31,BC,blocked,2,correct,997
18,3a,speeded_recognition,32,AB,intermixed,6,correct,979
18,3a,speeded_recognition,33,AC,blocked,1,correct,1817
18,3a,speeded_recognition,34,AC,intermixed,5,incorrect,848
18,3a,speeded_recognition,35,foil,intermixed,N/A,correct,2588
18,3a,speeded_recognition,36,AB,blocked,1,correct,1814
18,3a,speeded_recognition,37,AB,intermixed,4,correct,2120
18,3a,speeded_recognition,38,foil,intermixed,N/A,incorrect,1356
18,3a,speeded_recognition,39,AC,blocked,1,correct,1558
18,3a,speeded_recognition,40,BC,intermixed,4,correct,1638
18,3a,speeded_recognition,41,AB,blocked,3,correct,1901
18,3a,speeded_recognition,42,AB,intermixed,5,correct,1092
18,3a,speeded_recognition,43,AB,blocked,2,correct,927
18,3a,speeded_recognition,44,AC,intermixed,6,incorrect,1320
18,3a,speeded_recognition,45,AB,blocked,2,correct,989
18,3a,speeded_recognition,46,AC,intermixed,6,incorrect,1174
18,3a,speeded_recognition,47,BC,blocked,3,correct,1551
18,3a,speeded_recognition,48,foil,blocked,N/A,correct,1489
18,3a,explicit_inference,1,AC,blocked,2,correct,5136
18,3a,explicit_inference,2,AC,blocked,1,incorrect,2257
18,3a,explicit_inference,3,AC,intermixed,5,correct,2049
18,3a,explicit_inference,4,AC,intermixed,4,incorrect,2209
18,3a,explicit_inference,5,AC,blocked,3,incorrect,2753
18,3a,explicit_inference,6,AC,intermixed,6,correct,2167
18,3a,explicit_inference,7,AC,intermixed,5,correct,3189
18,3a,explicit_inference,8,AC,blocked,3,incorrect,1892
18,3a,explicit_inference,9,AC,intermixed,6,correct,2256
18,3a,explicit_inference,10,AC,intermixed,4,incorrect,1916
18,3a,explicit_inference,11,AC,blocked,2,incorrect,2130
18,3a,explicit_inference,12,AC,blocked,1,incorrect,2322
19,3a,speeded_recognition,1,AC,blocked,3,incorrect,1439
19,3a,speeded_recognition,2,foil,intermixed,N/A,incorrect,1009
19,3a,speeded_recognition,3,AC,intermixed,4,incorrect,1273
19,3a,speeded_recognition,4,foil,blocked,N/A,incorrect,1331
19,3a,speeded_recognition,5,BC,intermixed,4,correct,1263
19,3a,speeded_recognition,6,AB,blocked,3,correct,953
19,3a,speeded_recognition,7,foil,intermixed,N/A,correct,917
19,3a,speeded_recognition,8,BC,intermixed,5,correct,831
19,3a,speeded_recognition,9,BC,blocked,2,correct,818
19,3a,speeded_recognition,10,AB,intermixed,4,correct,1237
19,3a,speeded_recognition,11,foil,intermixed,N/A,correct,1269
19,3a,speeded_recognition,12,BC,blocked,2,incorrect,1303
19,3a,speeded_recognition,13,foil,blocked,N/A,incorrect,1418
19,3a,speeded_recognition,14,BC,intermixed,6,correct,924
19,3a,speeded_recognition,15,AC,blocked,1,correct,1228
19,3a,speeded_recognition,16,foil,intermixed,N/A,correct,1542
19,3a,speeded_recognition,17,BC,blocked,3,correct,913
19,3a,speeded_recognition,18,AB,intermixed,5,correct,1056
19,3a,speeded_recognition,19,foil,blocked,N/A,incorrect,1164
19,3a,speeded_recognition,20,AB,blocked,2,incorrect,1098
19,3a,speeded_recognition,21,AC,intermixed,6,incorrect,1186
19,3a,speeded_recognition,22,AC,blocked,2,correct,1017
19,3a,speeded_recognition,23,BC,intermixed,6,correct,2394
19,3a,speeded_recognition,24,AB,blocked,3,correct,1518
19,3a,speeded_recognition,25,AB,intermixed,6,incorrect,1978
19,3a,speeded_recognition,26,BC,blocked,3,correct,1059
19,3a,speeded_recognition,27,AB,intermixed,6,incorrect,2730
19,3a,speeded_recognition,28,AB,blocked,1,correct,1037
19,3a,speeded_recognition,29,AC,intermixed,5,incorrect,924
19,3a,speeded_recognition,30,BC,blocked,1,correct,903
19,3a,speeded_recognition,31,AC,intermixed,4,incorrect,948
19,3a,speeded_recognition,32,foil,blocked,N/A,correct,1203
19,3a,speeded_recognition,33,BC,blocked,1,incorrect,757
19,3a,speeded_recognition,34,AB,intermixed,4,correct,987
19,3a,speeded_recognition,35,foil,intermixed,N/A,correct,1873
19,3a,speeded_recognition,36,AB,intermixed,5,correct,764
19,3a,speeded_recognition,37,AC,blocked,2,correct,1543
19,3a,speeded_recognition,38,foil,intermixed,N/A,incorrect,931
19,3a,speeded_recognition,39,AC,blocked,1,incorrect,929
19,3a,speeded_recognition,40,AC,intermixed,6,correct,1996
19,3a,speeded_recognition,41,AC,blocked,3,incorrect,1262
19,3a,speeded_recognition,42,BC,intermixed,4,correct,1312
19,3a,speeded_recognition,43,foil,blocked,N/A,correct,1732
19,3a,speeded_recognition,44,AB,blocked,1,incorrect,1288
19,3a,speeded_recognition,45,BC,intermixed,5,correct,1088
19,3a,speeded_recognition,46,foil,blocked,N/A,incorrect,1562
19,3a,speeded_recognition,47,AB,blocked,2,incorrect,1891
19,3a,speeded_recognition,48,AC,intermixed,5,incorrect,978
19,3a,explicit_inference,1,AC,intermixed,5,correct,2946
19,3a,explicit_inference,2,AC,blocked,1,incorrect,2152
19,3a,explicit_inference,3,AC,intermixed,4,incorrect,3055
19,3a,explicit_inference,4,AC,blocked,3,incorrect,2855
19,3a,explicit_inference,5,AC,blocked,2,correct,2994
19,3a,explicit_inference,6,AC,intermixed,6,incorrect,2292
19,3a,explicit_inference,7,AC,intermixed,5,correct,3396
19,3a,explicit_inference,8,AC,intermixed,6,incorrect,2062
19,3a,explicit_inference,9,AC,blocked,3,incorrect,2353
19,3a,explicit_inference,10,AC,blocked,2,correct,2968
19,3a,explicit_inference,11,AC,intermixed,4,correct,2253
19,3a,explicit_inference,12,AC,blocked,1,correct,3736
20,3a,speeded_recognition,1,BC,blocked,3,correct,906
20,3a,speeded_recognition,2,AC,intermixed,5,correct,1207
20,3a,speeded_recognition,3,AC,blocked,1,correct,1467
20,3a,speeded_recognition,4,AB,intermixed,5,correct,993
20,3a,speeded_recognition,5,AC,blocked,3,incorrect,1127
20,3a,speeded_recognition,6,foil,intermixed,N/A,incorrect,930
20,3a,speeded_recognition,7,AB,intermixed,5,correct,1246
20,3a,speeded_recognition,8,AB,blocked,3,correct,1002
20,3a,speeded_recognition,9,AC,intermixed,6,incorrect,1472
20,3a,speeded_recognition,10,AB,blocked,1,correct,1445
20,3a,speeded_recognition,11,AC,intermixed,6,correct,2972
20,3a,speeded_recognition,12,BC,blocked,2,correct,952
20,3a,speeded_recognition,13,foil,blocked,N/A,incorrect,1233
20,3a,speeded_recognition,14,BC,intermixed,5,correct,1138
20,3a,speeded_recognition,15,AC,blocked,1,correct,1931
20,3a,speeded_recognition,16,foil,intermixed,N/A,correct,1345
20,3a,speeded_recognition,17,AC,intermixed,4,incorrect,1534
20,3a,speeded_recognition,18,BC,blocked,3,incorrect,1259
20,3a,speeded_recognition,19,AB,intermixed,4,correct,1125
20,3a,speeded_recognition,20,AB,blocked,1,correct,1313
20,3a,speeded_recognition,21,BC,intermixed,5,correct,906
20,3a,speeded_recognition,22,AB,blocked,3,correct,1370
20,3a,speeded_recognition,23,BC,intermixed,6,incorrect,1123
20,3a,speeded_recognition,24,foil,blocked,N/A,incorrect,1513
20,3a,speeded_recognition,25,AB,intermixed,6,correct,1219
20,3a,speeded_recognition,26,AC,blocked,3,incorrect,840
20,3a,speeded_recognition,27,foil,intermixed,N/A,correct,1420
20,3a,speeded_recognition,28,BC,blocked,1,correct,973
20,3a,speeded_recognition,29,foil,intermixed,N/A,correct,866
20,3a,speeded_recognition,30,AC,blocked,2,incorrect,2447
20,3a,speeded_recognition,31,foil,intermixed,N/A,incorrect,1540
20,3a,speeded_recognition,32,AC,blocked,2,correct,1092
20,3a,speeded_recognition,33,AB,intermixed,6,correct,1490
20,3a,speeded_recognition,34,foil,blocked,N/A,correct,1198
20,3a,speeded_recognition,35,AC,intermixed,5,incorrect,1090
20,3a,speeded_recognition,36,BC,blocked,2,correct,1149
20,3a,speeded_recognition,37,BC,intermixed,6,correct,1229
20,3a,speeded_recognition,38,foil,blocked,N/A,correct,886
20,3a,speeded_recognition,39,AB,blocked,2,correct,1230
20,3a,speeded_recognition,40,foil,blocked,N/A,correct,1187
20,3a,speeded_recognition,41,AC,intermixed,4,incorrect,1203
20,3a,speeded_recognition,42,AB,blocked,2,correct,1395
20,3a,speeded_recognition,43,BC,intermixed,4,correct,1583
20,3a,speeded_recognition,44,foil,intermixed,N/A,correct,780
20,3a,speeded_recognition,45,foil,blocked,N/A,incorrect,1293
20,3a,speeded_recognition,46,BC,intermixed,4,correct,998
20,3a,speeded_recognition,47,BC,blocked,1,correct,1219
20,3a,speeded_recognition,48,AB,intermixed,4,correct,1605
20,3a,explicit_inference,1,AC,intermixed,4,correct,1914
20,3a,explicit_inference,2,AC,blocked,2,incorrect,2575
20,3a,explicit_inference,3,AC,intermixed,6,incorrect,1515
20,3a,explicit_inference,4,AC,blocked,3,incorrect,2868
20,3a,explicit_inference,5,AC,intermixed,5,correct,2027
20,3a,explicit_inference,6,AC,blocked,1,incorrect,2294
20,3a,explicit_inference,7,AC,blocked,1,incorrect,2738
20,3a,explicit_inference,8,AC,blocked,3,incorrect,1403
20,3a,explicit_inference,9,AC,intermixed,4,correct,1480
20,3a,explicit_inference,10,AC,intermixed,6,correct,1217
20,3a,explicit_inference,11,AC,intermixed,5,correct,2519
20,3a,explicit_inference,12,AC,blocked,2,correct,1883
21,3a,speeded_recognition,1,AB,intermixed,5,correct,1137
21,3a,speeded_recognition,2,foil,blocked,N/A,correct,1132
21,3a,speeded_recognition,3,AC,blocked,1,correct,1085
21,3a,speeded_recognition,4,BC,intermixed,4,correct,1233
21,3a,speeded_recognition,5,AB,blocked,2,incorrect,964
21,3a,speeded_recognition,6,AC,intermixed,4,correct,1009
21,3a,speeded_recognition,7,AB,blocked,1,correct,1516
21,3a,speeded_recognition,8,foil,intermixed,N/A,correct,981
21,3a,speeded_recognition,9,AC,blocked,2,correct,1101
21,3a,speeded_recognition,10,BC,intermixed,5,incorrect,1488
21,3a,speeded_recognition,11,AB,blocked,2,correct,1201
21,3a,speeded_recognition,12,AB,intermixed,4,correct,949
21,3a,speeded_recognition,13,foil,intermixed,N/A,correct,1096
21,3a,speeded_recognition,14,AC,intermixed,4,correct,1100
21,3a,speeded_recognition,15,BC,blocked,3,incorrect,1497
21,3a,speeded_recognition,16,AC,intermixed,6,correct,1220
21,3a,speeded_recognition,17,AB,blocked,3,correct,956
21,3a,speeded_recognition,18,AC,intermixed,6,correct,1265
21,3a,speeded_recognition,19,AB,blocked,3,correct,808
21,3a,speeded_recognition,20,BC,intermixed,4,correct,1086
21,3a,speeded_recognition,21,BC,blocked,1,correct,1305
21,3a,speeded_recognition,22,AB,intermixed,4,correct,932
21,3a,speeded_recognition,23,AC,blocked,3,correct,1027
21,3a,speeded_recognition,24,AB,intermixed,6,correct,1219
21,3a,speeded_recognition,25,AC,blocked,2,correct,946
21,3a,speeded_recognition,26,AC,intermixed,5,correct,1437
21,3a,speeded_recognition,27,foil,blocked,N/A,correct,892
21,3a,speeded_recognition,28,AB,intermixed,5,correct,846
21,3a,speeded_recognition,29,foil,blocked,N/A,correct,1322
21,3a,speeded_recognition,30,foil,blocked,N/A,correct,1277
21,3a,speeded_recognition,31,AC,intermixed,5,correct,1400
21,3a,speeded_recognition,32,BC,blocked,1,correct,1325
21,3a,speeded_recognition,33,foil,intermixed,N/A,correct,1036
21,3a,speeded_recognition,34,AC,blocked,1,correct,818
21,3a,speeded_recognition,35,BC,intermixed,6,correct,987
21,3a,speeded_recognition,36,AC,blocked,3,correct,1118
21,3a,speeded_recognition,37,foil,intermixed,N/A,correct,1037
21,3a,speeded_recognition,38,AB,blocked,1,correct,1374
21,3a,speeded_recognition,39,AB,intermixed,6,incorrect,900
21,3a,speeded_recognition,40,foil,blocked,N/A,correct,1199
21,3a,speeded_recognition,41,BC,blocked,3,incorrect,1368
21,3a,speeded_recognition,42,BC,intermixed,5,correct,1456
21,3a,speeded_recognition,43,foil,intermixed,N/A,correct,976
21,3a,speeded_recognition,44,BC,blocked,2,incorrect,1246
21,3a,speeded_recognition,45,foil,blocked,N/A,correct,908
21,3a,speeded_recognition,46,foil,intermixed,N/A,correct,1060
21,3a,speeded_recognition,47,BC,intermixed,6,correct,859
21,3a,speeded_recognition,48,BC,blocked,2,incorrect,1409
21,3a,explicit_inference,1,AC,intermixed,6,correct,3106
21,3a,explicit_inference,2,AC,intermixed,5,correct,3932
21,3a,explicit_inference,3,AC,blocked,2,incorrect,3047
21,3a,explicit_inference,4,AC,blocked,1,incorrect,3254
21,3a,explicit_inference,5,AC,blocked,3,correct,3603
21,3a,explicit_inference,6,AC,intermixed,4,correct,2009
21,3a,explicit_inference,7,AC,intermixed,4,correct,2186
21,3a,explicit_inference,8,AC,blocked,3,correct,2208
21,3a,explicit_inference,9,AC,intermixed,6,correct,3660
21,3a,explicit_inference,10,AC,blocked,1,correct,2268
21,3a,explicit_inference,11,AC,intermixed,5,correct,1594
21,3a,explicit_inference,12,AC,blocked,2,correct,1426
22,3a,speeded_recognition,1,AC,intermixed,6,incorrect,1427
22,3a,speeded_recognition,2,foil,blocked,N/A,correct,1737
22,3a,speeded_recognition,3,foil,blocked,N/A,correct,1811
22,3a,speeded_recognition,4,AC,intermixed,5,incorrect,945
22,3a,speeded_recognition,5,BC,blocked,3,incorrect,1433
22,3a,speeded_recognition,6,foil,blocked,N/A,correct,1379
22,3a,speeded_recognition,7,AB,intermixed,4,correct,795
22,3a,speeded_recognition,8,foil,blocked,N/A,correct,1465
22,3a,speeded_recognition,9,AB,blocked,2,correct,1119
22,3a,speeded_recognition,10,AB,intermixed,5,correct,1690
22,3a,speeded_recognition,11,AC,blocked,3,correct,1209
22,3a,speeded_recognition,12,AC,intermixed,4,incorrect,1340
22,3a,speeded_recognition,13,BC,blocked,2,correct,1381
22,3a,speeded_recognition,14,AB,intermixed,6,correct,1925
22,3a,speeded_recognition,15,AB,blocked,3,incorrect,1208
22,3a,speeded_recognition,16,BC,intermixed,5,correct,1527
22,3a,speeded_recognition,17,foil,intermixed,N/A,incorrect,1421
22,3a,speeded_recognition,18,AC,blocked,2,incorrect,1539
22,3a,speeded_recognition,19,BC,intermixed,5,correct,1259
22,3a,speeded_recognition,20,AB,blocked,1,incorrect,1343
22,3a,speeded_recognition,21,BC,intermixed,4,correct,1367
22,3a,speeded_recognition,22,AB,blocked,3,incorrect,1272
22,3a,speeded_recognition,23,foil,intermixed,N/A,incorrect,1277
22,3a,speeded_recognition,24,foil,intermixed,N/A,incorrect,1055
22,3a,speeded_recognition,25,AB,intermixed,5,correct,1728
22,3a,speeded_recognition,26,AC,blocked,2,incorrect,870
22,3a,speeded_recognition,27,BC,intermixed,6,correct,1039
22,3a,speeded_recognition,28,foil,blocked,N/A,correct,1422
22,3a,speeded_recognition,29,AB,blocked,1,correct,1072
22,3a,speeded_recognition,30,AB,intermixed,6,correct,992
22,3a,speeded_recognition,31,BC,blocked,3,incorrect,1208
22,3a,speeded_recognition,32,AB,intermixed,4,correct,860
22,3a,speeded_recognition,33,foil,intermixed,N/A,incorrect,948
22,3a,speeded_recognition,34,AC,blocked,1,correct,1215
22,3a,speeded_recognition,35,BC,intermixed,4,correct,1173
22,3a,speeded_recognition,36,foil,intermixed,N/A,incorrect,1002
22,3a,speeded_recognition,37,AC,blocked,1,correct,1402
22,3a,speeded_recognition,38,AC,intermixed,4,incorrect,1067
22,3a,speeded_recognition,39,AC,blocked,3,correct,921
22,3a,speeded_recognition,40,AC,intermixed,6,correct,1388
22,3a,speeded_recognition,41,BC,blocked,1,correct,1290
22,3a,speeded_recognition,42,AC,intermixed,5,incorrect,1098
22,3a,speeded_recognition,43,BC,blocked,2,correct,1216
22,3a,speeded_recognition,44,foil,intermixed,N/A,incorrect,1205
22,3a,speeded_recognition,45,BC,blocked,1,correct,1540
22,3a,speeded_recognition,46,foil,blocked,N/A,correct,1042
22,3a,speeded_recognition,47,BC,intermixed,6,correct,947
22,3a,speeded_recognition,48,AB,blocked,2,correct,940
22,3a,explicit_inference,1,AC,blocked,1,incorrect,5986
22,3a,explicit_inference,2,AC,blocked,3,correct,3697
22,3a,explicit_inference,3,AC,blocked,2,correct,3372
22,3a,explicit_inference,4,AC,intermixed,5,correct,1334
22,3a,explicit_inference,5,AC,intermixed,6,incorrect,3455
22,3a,explicit_inference,6,AC,intermixed,4,incorrect,1898
22,3a,explicit_inference,7,AC,intermixed,4,incorrect,1932
22,3a,explicit_inference,8,AC,blocked,2,correct,3848
22,3a,explicit_inference,9,AC,blocked,1,correct,3699
22,3a,explicit_inference,10,AC,intermixed,6,correct,2260
22,3a,explicit_inference,11,AC,intermixed,5,correct,1238
22,3a,explicit_inference,12,AC,blocked,3,incorrect,1265
23,3a,speeded_recognition,1,AC,intermixed,4,correct,1559
23,3a,speeded_recognition,2,foil,intermixed,N/A,incorrect,1931
23,3a,speeded_recognition,3,BC,blocked,3,incorrect,2412
23,3a,speeded_recognition,4,BC,intermixed,6,correct,1698
23,3a,speeded_recognition,5,AB,blocked,2,correct,1956
23,3a,speeded_recognition,6,BC,intermixed,5,incorrect,1821
23,3a,speeded_recognition,7,foil,blocked,N/A,incorrect,1920
23,3a,speeded_recognition,8,BC,blocked,2,correct,1690
23,3a,speeded_recognition,9,AC,intermixed,5,incorrect,1606
23,3a,speeded_recognition,10,AC,blocked,3,correct,1871
23,3a,speeded_recognition,11,BC,intermixed,6,correct,1480
23,3a,speeded_recognition,12,BC,blocked,1,correct,1938
23,3a,speeded_recognition,13,BC,intermixed,4,correct,1728
23,3a,speeded_recognition,14,AC,blocked,2,incorrect,1975
23,3a,speeded_recognition,15,foil,intermixed,N/A,correct,1613
23,3a,speeded_recognition,16,AC,intermixed,5,incorrect,1390
23,3a,speeded_recognition,17,AB,blocked,3,correct,1534
23,3a,speeded_recognition,18,AC,intermixed,6,incorrect,1716
23,3a,speeded_recognition,19,AC,blocked,2,incorrect,1701
23,3a,speeded_recognition,20,AB,intermixed,4,correct,1830
23,3a,speeded_recognition,21,foil,blocked,N/A,correct,1462
23,3a,speeded_recognition,22,BC,blocked,3,correct,1415
23,3a,speeded_recognition,23,AB,intermixed,5,correct,1523
23,3a,speeded_recognition,24,foil,blocked,N/A,correct,1727
23,3a,speeded_recognition,25,AB,intermixed,5,correct,1319
23,3a,speeded_recognition,26,AB,blocked,1,incorrect,1455
23,3a,speeded_recognition,27,foil,blocked,N/A,incorrect,1570
23,3a,speeded_recognition,28,BC,intermixed,4,correct,1790
23,3a,speeded_recognition,29,AC,blocked,1,correct,1460
23,3a,speeded_recognition,30,AB,intermixed,4,correct,1886
23,3a,speeded_recognition,31,foil,intermixed,N/A,incorrect,1356
23,3a,speeded_recognition,32,AC,blocked,1,correct,1286
23,3a,speeded_recognition,33,foil,intermixed,N/A,incorrect,1535
23,3a,speeded_recognition,34,AC,intermixed,4,incorrect,2007
23,3a,speeded_recognition,35,BC,blocked,1,incorrect,1648
23,3a,speeded_recognition,36,AB,intermixed,6,correct,1480
23,3a,speeded_recognition,37,foil,intermixed,N/A,incorrect,1849
23,3a,speeded_recognition,38,AC,blocked,3,incorrect,1701
23,3a,speeded_recognition,39,BC,intermixed,5,correct,1380
23,3a,speeded_recognition,40,AB,blocked,1,incorrect,1356
23,3a,speeded_recognition,41,foil,blocked,N/A,correct,1456
23,3a,speeded_recognition,42,BC,blocked,2,correct,1257
23,3a,speeded_recognition,43,AB,intermixed,6,correct,1494
23,3a,speeded_recognition,44,AB,blocked,3,incorrect,1746
23,3a,speeded_recognition,45,foil,intermixed,N/A,incorrect,1304
23,3a,speeded_recognition,46,AB,blocked,2,correct,1585
23,3a,speeded_recognition,47,foil,blocked,N/A,correct,1343
23,3a,speeded_recognition,48,AC,intermixed,6,correct,1435
23,3a,explicit_inference,1,AC,intermixed,4,incorrect,2822
23,3a,explicit_inference,2,AC,blocked,2,correct,2195
23,3a,explicit_inference,3,AC,intermixed,5,correct,2159
23,3a,explicit_inference,4,AC,blocked,3,correct,3563
23,3a,explicit_inference,5,AC,intermixed,6,correct,2742
23,3a,explicit_inference,6,AC,blocked,1,correct,2485
23,3a,explicit_inference,7,AC,blocked,1,incorrect,2176
23,3a,explicit_inference,8,AC,blocked,2,incorrect,2049
23,3a,explicit_inference,9,AC,intermixed,6,correct,3257
23,3a,explicit_inference,10,AC,intermixed,4,incorrect,2462
23,3a,explicit_inference,11,AC,blocked,3,incorrect,3705
23,3a,explicit_inference,12,AC,intermixed,5,correct,2036
24,3a,speeded_recognition,1,BC,blocked,2,correct,1392
24,3a,speeded_recognition,2,foil,blocked,N/A,correct,1416
24,3a,speeded_recognition,3,BC,intermixed,4,correct,1518
24,3a,speeded_recognition,4,foil,intermixed,N/A,correct,1551
24,3a,speeded_recognition,5,foil,blocked,N/A,incorrect,1583
24,3a,speeded_recognition,6,AB,intermixed,4,incorrect,1216
24,3a,speeded_recognition,7,AC,blocked,1,correct,1263
24,3a,speeded_recognition,8,AC,intermixed,4,correct,984
24,3a,speeded_recognition,9,AC,blocked,2,correct,1327
24,3a,speeded_recognition,10,BC,intermixed,5,incorrect,1351
24,3a,speeded_recognition,11,AB,blocked,1,correct,1391
24,3a,speeded_recognition,12,AC,intermixed,6,correct,1103
24,3a,speeded_recognition,13,AC,blocked,3,incorrect,1728
24,3a,speeded_recognition,14,foil,intermixed,N/A,correct,1271
24,3a,speeded_recognition,15,AC,intermixed,4,incorrect,1295
24,3a,speeded_recognition,16,AC,blocked,2,incorrect,1383
24,3a,speeded_recognition,17,foil,intermixed,N/A,incorrect,1295
24,3a,speeded_recognition,18,BC,blocked,1,correct,1416
24,3a,speeded_recognition,19,AB,intermixed,5,correct,2551
24,3a,speeded_recognition,20,foil,intermixed,N/A,incorrect,1567
24,3a,speeded_recognition,21,AB,blocked,2,incorrect,1392
24,3a,speeded_recognition,22,foil,intermixed,N/A,incorrect,1824
24,3a,speeded_recognition,23,BC,intermixed,4,correct,1640
24,3a,speeded_recognition,24,foil,blocked,N/A,N/A,N/A
24,3a,speeded_recognition,25,AB,blocked,2,incorrect,1631
24,3a,speeded_recognition,26,foil,blocked,N/A,incorrect,1248
24,3a,speeded_recognition,27,AC,intermixed,5,correct,1271
24,3a,speeded_recognition,28,BC,blocked,1,correct,1007
24,3a,speeded_recognition,29,BC,intermixed,6,incorrect,998
24,3a,speeded_recognition,30,AB,blocked,1,incorrect,1070
24,3a,speeded_recognition,31,AB,intermixed,6,incorrect,1127
24,3a,speeded_recognition,32,foil,blocked,N/A,correct,1487
24,3a,speeded_recognition,33,BC,blocked,3,correct,1221
24,3a,speeded_recognition,34,BC,intermixed,5,correct,991
24,3a,speeded_recognition,35,AC,blocked,1,correct,1103
24,3a,speeded_recognition,36,AB,intermixed,6,correct,1231
24,3a,speeded_recognition,37,AC,blocked,3,incorrect,1110
24,3a,speeded_recognition,38,AB,intermixed,4,correct,1095
24,3a,speeded_recognition,39,AB,blocked,3,correct,1103
24,3a,speeded_recognition,40,foil,intermixed,N/A,incorrect,1183
24,3a,speeded_recognition,41,AB,intermixed,5,correct,1294
24,3a,speeded_recognition,42,AB,blocked,3,correct,1023
24,3a,speeded_recognition,43,BC,intermixed,6,correct,1101
24,3a,speeded_recognition,44,BC,blocked,3,correct,982
24,3a,speeded_recognition,45,AC,intermixed,6,incorrect,1549
24,3a,speeded_recognition,46,BC,blocked,2,correct,1136
24,3a,speeded_recognition,47,AC,intermixed,5,incorrect,1031
24,3a,speeded_recognition,48,foil,blocked,N/A,correct,1141
24,3a,explicit_inference,1,AC,intermixed,6,incorrect,1865
24,3a,explicit_inference,2,AC,intermixed,4,incorrect,1186
24,3a,explicit_inference,3,AC,blocked,2,correct,1565
24,3a,explicit_inference,4,AC,blocked,1,correct,1387
24,3a,explicit_inference,5,AC,blocked,3,correct,1356
24,3a,explicit_inference,6,AC,intermixed,5,correct,1280
24,3a,explicit_inference,7,AC,blocked,3,correct,3175
24,3a,explicit_inference,8,AC,intermixed,6,correct,2305
24,3a,explicit_inference,9,AC,intermixed,5,correct,1704
24,3a,explicit_inference,10,AC,intermixed,4,incorrect,2003
24,3a,explicit_inference,11,AC,blocked,2,correct,1424
24,3a,explicit_inference,12,AC,blocked,1,incorrect,1425
25,3a,speeded_recognition,1,BC,blocked,3,correct,697
25,3a,speeded_recognition,2,AC,intermixed,6,incorrect,2195
25,3a,speeded_recognition,3,AC,blocked,2,N/A,N/A
25,3a,speeded_recognition,4,AC,intermixed,4,incorrect,1886
25,3a,speeded_recognition,5,foil,blocked,N/A,correct,1510
25,3a,speeded_recognition,6,AC,blocked,2,incorrect,664
25,3a,speeded_recognition,7,AC,intermixed,5,incorrect,318
25,3a,speeded_recognition,8,AB,blocked,3,correct,536
25,3a,speeded_recognition,9,AB,intermixed,4,incorrect,374
25,3a,speeded_recognition,10,foil,blocked,N/A,incorrect,366
25,3a,speeded_recognition,11,BC,intermixed,5,correct,598
25,3a,speeded_recognition,12,BC,blocked,1,correct,575
25,3a,speeded_recognition,13,AC,intermixed,5,correct,795
25,3a,speeded_recognition,14,BC,blocked,2,correct,719
25,3a,speeded_recognition,15,foil,intermixed,N/A,incorrect,768
25,3a,speeded_recognition,16,AC,intermixed,6,incorrect,1592
25,3a,speeded_recognition,17,AB,blocked,2,incorrect,1321
25,3a,speeded_recognition,18,foil,blocked,N/A,incorrect,2878
25,3a,speeded_recognition,19,foil,intermixed,N/A,incorrect,668
25,3a,speeded_recognition,20,BC,intermixed,6,N/A,N/A
25,3a,speeded_recognition,21,AB,blocked,2,N/A,N/A
25,3a,speeded_recognition,22,AB,intermixed,5,correct,2568
25,3a,speeded_recognition,23,BC,blocked,1,N/A,N/A
25,3a,speeded_recognition,24,foil,intermixed,N/A,N/A,N/A
25,3a,speeded_recognition,25,BC,intermixed,4,correct,679
25,3a,speeded_recognition,26,BC,blocked,2,correct,752
25,3a,speeded_recognition,27,BC,intermixed,5,correct,814
25,3a,speeded_recognition,28,foil,blocked,N/A,incorrect,1328
25,3a,speeded_recognition,29,AC,blocked,3,incorrect,2399
25,3a,speeded_recognition,30,foil,intermixed,N/A,correct,696
25,3a,speeded_recognition,31,foil,blocked,N/A,incorrect,2566
25,3a,speeded_recognition,32,AB,intermixed,4,correct,584
25,3a,speeded_recognition,33,foil,intermixed,N/A,correct,1229
25,3a,speeded_recognition,34,AC,intermixed,4,N/A,N/A
25,3a,speeded_recognition,35,AB,blocked,1,correct,368
25,3a,speeded_recognition,36,AB,intermixed,5,correct,1583
25,3a,speeded_recognition,37,AB,blocked,1,correct,2655
25,3a,speeded_recognition,38,BC,intermixed,4,correct,729
25,3a,speeded_recognition,39,AC,blocked,1,correct,1104
25,3a,speeded_recognition,40,AB,intermixed,6,correct,912
25,3a,speeded_recognition,41,BC,blocked,3,correct,2967
25,3a,speeded_recognition,42,BC,intermixed,6,incorrect,2126
25,3a,speeded_recognition,43,AC,blocked,3,correct,1351
25,3a,speeded_recognition,44,foil,intermixed,N/A,incorrect,2573
25,3a,speeded_recognition,45,AB,blocked,3,correct,2336
25,3a,speeded_recognition,46,AB,intermixed,6,correct,504
25,3a,speeded_recognition,47,AC,blocked,1,N/A,N/A
25,3a,speeded_recognition,48,foil,blocked,N/A,N/A,N/A
25,3a,explicit_inference,1,AC,intermixed,5,incorrect,6861
25,3a,explicit_inference,2,AC,intermixed,6,incorrect,1868
25,3a,explicit_inference,3,AC,blocked,2,incorrect,1965
25,3a,explicit_inference,4,AC,blocked,3,correct,1094
25,3a,explicit_inference,5,AC,blocked,1,correct,4586
25,3a,explicit_inference,6,AC,intermixed,4,incorrect,1686
25,3a,explicit_inference,7,AC,blocked,1,incorrect,1758
25,3a,explicit_inference,8,AC,intermixed,6,incorrect,1397
25,3a,explicit_inference,9,AC,intermixed,4,incorrect,847
25,3a,explicit_inference,10,AC,blocked,2,correct,1375
25,3a,explicit_inference,11,AC,intermixed,5,correct,3550
25,3a,explicit_inference,12,AC,blocked,3,correct,691
26,3a,speeded_recognition,1,AC,intermixed,4,incorrect,1563
26,3a,speeded_recognition,2,AB,blocked,2,incorrect,1746
26,3a,speeded_recognition,3,AB,intermixed,4,correct,1769
26,3a,speeded_recognition,4,AC,blocked,3,correct,1248
26,3a,speeded_recognition,5,AC,intermixed,4,correct,1117
26,3a,speeded_recognition,6,BC,blocked,1,correct,1265
26,3a,speeded_recognition,7,foil,intermixed,N/A,correct,1113
26,3a,speeded_recognition,8,AB,blocked,1,correct,1602
26,3a,speeded_recognition,9,foil,intermixed,N/A,correct,1170
26,3a,speeded_recognition,10,BC,intermixed,5,incorrect,1038
26,3a,speeded_recognition,11,AC,blocked,1,correct,1096
26,3a,speeded_recognition,12,AB,intermixed,5,correct,1244
26,3a,speeded_recognition,13,BC,blocked,2,correct,1353
26,3a,speeded_recognition,14,AC,intermixed,6,correct,1048
26,3a,speeded_recognition,15,foil,blocked,N/A,correct,1368
26,3a,speeded_recognition,16,AB,blocked,1,correct,1518
26,3a,speeded_recognition,17,foil,blocked,N/A,correct,1153
26,3a,speeded_recognition,18,AB,intermixed,6,correct,1475
26,3a,speeded_recognition,19,BC,blocked,3,correct,1491
26,3a,speeded_recognition,20,BC,intermixed,4,correct,1538
26,3a,speeded_recognition,21,BC,blocked,3,correct,1358
26,3a,speeded_recognition,22,AB,intermixed,5,correct,1271
26,3a,speeded_recognition,23,AB,blocked,3,correct,1682
26,3a,speeded_recognition,24,AC,intermixed,5,correct,1505
26,3a,speeded_recognition,25,AC,blocked,2,correct,1228
26,3a,speeded_recognition,26,foil,intermixed,N/A,correct,1316
26,3a,speeded_recognition,27,BC,intermixed,5,incorrect,1717
26,3a,speeded_recognition,28,foil,blocked,N/A,correct,1204
26,3a,speeded_recognition,29,AB,intermixed,6,correct,1430
26,3a,speeded_recognition,30,AC,blocked,3,correct,1259
26,3a,speeded_recognition,31,foil,intermixed,N/A,correct,1601
26,3a,speeded_recognition,32,AC,blocked,1,correct,1523
26,3a,speeded_recognition,33,AC,intermixed,6,correct,1200
26,3a,speeded_recognition,34,foil,blocked,N/A,correct,1036
26,3a,speeded_recognition,35,AB,intermixed,4,correct,1914
26,3a,speeded_recognition,36,foil,blocked,N/A,correct,1106
26,3a,speeded_recognition,37,BC,intermixed,4,correct,1511
26,3a,speeded_recognition,38,BC,blocked,2,correct,1513
26,3a,speeded_recognition,39,foil,intermixed,N/A,correct,1012
26,3a,speeded_recognition,40,AC,blocked,2,correct,1054
26,3a,speeded_recognition,41,foil,intermixed,N/A,correct,988
26,3a,speeded_recognition,42,BC,intermixed,6,correct,1413
26,3a,speeded_recognition,43,AB,blocked,3,correct,1193
26,3a,speeded_recognition,44,AC,intermixed,5,incorrect,1384
26,3a,speeded_recognition,45,AB,blocked,2,incorrect,1498
26,3a,speeded_recognition,46,foil,blocked,N/A,correct,1515
26,3a,speeded_recognition,47,BC,intermixed,6,incorrect,1958
26,3a,speeded_recognition,48,BC,blocked,1,correct,1279
26,3a,explicit_inference,1,AC,blocked,1,incorrect,3153
26,3a,explicit_inference,2,AC,intermixed,5,correct,2232
26,3a,explicit_inference,3,AC,blocked,2,correct,1713
26,3a,explicit_inference,4,AC,intermixed,4,incorrect,1728
26,3a,explicit_inference,5,AC,blocked,3,correct,2439
26,3a,explicit_inference,6,AC,intermixed,6,correct,2063
26,3a,explicit_inference,7,AC,blocked,3,correct,1620
26,3a,explicit_inference,8,AC,intermixed,6,correct,3016
26,3a,explicit_inference,9,AC,blocked,2,incorrect,1836
26,3a,explicit_inference,10,AC,intermixed,5,correct,1704
26,3a,explicit_inference,11,AC,intermixed,4,correct,3092
26,3a,explicit_inference,12,AC,blocked,1,correct,2059
27,3a,speeded_recognition,1,BC,blocked,2,incorrect,1190
27,3a,speeded_recognition,2,AC,intermixed,6,incorrect,1347
27,3a,speeded_recognition,3,BC,blocked,3,incorrect,1308
27,3a,speeded_recognition,4,BC,intermixed,4,correct,1109
27,3a,speeded_recognition,5,BC,blocked,2,incorrect,1216
27,3a,speeded_recognition,6,BC,intermixed,4,correct,1251
27,3a,speeded_recognition,7,AC,blocked,2,correct,1181
27,3a,speeded_recognition,8,AB,intermixed,5,correct,1387
27,3a,speeded_recognition,9,AC,blocked,3,incorrect,1291
27,3a,speeded_recognition,10,BC,intermixed,6,incorrect,1518
27,3a,speeded_recognition,11,AB,blocked,3,correct,1556
27,3a,speeded_recognition,12,foil,blocked,N/A,incorrect,1060
27,3a,speeded_recognition,13,AB,intermixed,4,correct,1464
27,3a,speeded_recognition,14,AB,blocked,1,correct,1501
27,3a,speeded_recognition,15,AC,intermixed,4,incorrect,1446
27,3a,speeded_recognition,16,AC,blocked,3,correct,1679
27,3a,speeded_recognition,17,AC,intermixed,5,incorrect,1785
27,3a,speeded_recognition,18,AB,blocked,2,correct,1171
27,3a,speeded_recognition,19,AB,intermixed,5,correct,1445
27,3a,speeded_recognition,20,foil,intermixed,N/A,correct,1100
27,3a,speeded_recognition,21,foil,blocked,N/A,incorrect,1350
27,3a,speeded_recognition,22,BC,blocked,3,correct,1228
27,3a,speeded_recognition,23,AB,intermixed,6,correct,1083
27,3a,speeded_recognition,24,foil,blocked,N/A,correct,1450
27,3a,speeded_recognition,25,AC,blocked,1,correct,1312
27,3a,speeded_recognition,26,AC,intermixed,4,incorrect,1258
27,3a,speeded_recognition,27,foil,intermixed,N/A,incorrect,1363
27,3a,speeded_recognition,28,AC,blocked,2,correct,1452
27,3a,speeded_recognition,29,BC,intermixed,6,correct,1275
27,3a,speeded_recognition,30,AB,blocked,2,correct,1109
27,3a,speeded_recognition,31,AB,intermixed,4,correct,1204
27,3a,speeded_recognition,32,AC,blocked,1,correct,1061
27,3a,speeded_recognition,33,foil,intermixed,N/A,incorrect,1261
27,3a,speeded_recognition,34,foil,blocked,N/A,correct,1455
27,3a,speeded_recognition,35,AC,intermixed,5,correct,1261
27,3a,speeded_recognition,36,AB,blocked,1,incorrect,1514
27,3a,speeded_recognition,37,AC,intermixed,6,incorrect,1334
27,3a,speeded_recognition,38,foil,blocked,N/A,correct,1618
27,3a,speeded_recognition,39,BC,blocked,1,correct,1305
27,3a,speeded_recognition,40,AB,intermixed,6,correct,1184
27,3a,speeded_recognition,41,foil,intermixed,N/A,incorrect,1327
27,3a,speeded_recognition,42,AB,blocked,3,incorrect,1452
27,3a,speeded_recognition,43,foil,intermixed,N/A,incorrect,1157
27,3a,speeded_recognition,44,BC,intermixed,5,correct,1708
27,3a,speeded_recognition,45,foil,blocked,N/A,correct,1461
27,3a,speeded_recognition,46,BC,intermixed,5,correct,1340
27,3a,speeded_recognition,47,BC,blocked,1,correct,1974
27,3a,speeded_recognition,48,foil,intermixed,N/A,correct,1330
27,3a,explicit_inference,1,AC,intermixed,6,correct,2192
27,3a,explicit_inference,2,AC,intermixed,4,correct,2580
27,3a,explicit_inference,3,AC,blocked,1,incorrect,2113
27,3a,explicit_inference,4,AC,blocked,3,incorrect,3016
27,3a,explicit_inference,5,AC,intermixed,5,incorrect,2121
27,3a,explicit_inference,6,AC,blocked,2,incorrect,1984
27,3a,explicit_inference,7,AC,blocked,3,correct,1944
27,3a,explicit_inference,8,AC,intermixed,4,correct,1696
27,3a,explicit_inference,9,AC,blocked,1,incorrect,2534
27,3a,explicit_inference,10,AC,blocked,2,incorrect,2718
27,3a,explicit_inference,11,AC,intermixed,6,incorrect,3023
27,3a,explicit_inference,12,AC,intermixed,5,incorrect,2845
28,3a,speeded_recognition,1,AC,blocked,1,incorrect,1455
28,3a,speeded_recognition,2,AB,intermixed,6,correct,1599
28,3a,speeded_recognition,3,AB,blocked,1,correct,1151
28,3a,speeded_recognition,4,AC,intermixed,5,incorrect,1207
28,3a,speeded_recognition,5,foil,blocked,N/A,correct,1391
28,3a,speeded_recognition,6,AB,blocked,1,correct,1079
28,3a,speeded_recognition,7,AC,intermixed,5,incorrect,1191
28,3a,speeded_recognition,8,foil,intermixed,N/A,incorrect,951
28,3a,speeded_recognition,9,AB,blocked,2,incorrect,975
28,3a,speeded_recognition,10,AC,intermixed,6,incorrect,750
28,3a,speeded_recognition,11,BC,blocked,2,incorrect,1382
28,3a,speeded_recognition,12,AC,intermixed,6,incorrect,1391
28,3a,speeded_recognition,13,BC,blocked,3,correct,2111
28,3a,speeded_recognition,14,AB,intermixed,5,correct,1247
28,3a,speeded_recognition,15,AC,blocked,3,incorrect,862
28,3a,speeded_recognition,16,AC,intermixed,4,incorrect,735
28,3a,speeded_recognition,17,foil,blocked,N/A,incorrect,1054
28,3a,speeded_recognition,18,AB,blocked,2,correct,870
28,3a,speeded_recognition,19,foil,blocked,N/A,incorrect,935
28,3a,speeded_recognition,20,AB,intermixed,5,correct,703
28,3a,speeded_recognition,21,foil,intermixed,N/A,incorrect,1551
28,3a,speeded_recognition,22,AC,blocked,2,incorrect,663
28,3a,speeded_recognition,23,AB,intermixed,4,incorrect,1190
28,3a,speeded_recognition,24,foil,intermixed,N/A,correct,1095
28,3a,speeded_recognition,25,foil,blocked,N/A,correct,1391
28,3a,speeded_recognition,26,BC,intermixed,4,correct,3286
28,3a,speeded_recognition,27,AB,blocked,3,correct,895
28,3a,speeded_recognition,28,AB,intermixed,6,correct,1039
28,3a,speeded_recognition,29,AC,blocked,3,incorrect,1743
28,3a,speeded_recognition,30,foil,intermixed,N/A,incorrect,2951
28,3a,speeded_recognition,31,AB,intermixed,4,incorrect,942
28,3a,speeded_recognition,32,foil,blocked,N/A,incorrect,615
28,3a,speeded_recognition,33,BC,intermixed,4,incorrect,1079
28,3a,speeded_recognition,34,foil,blocked,N/A,incorrect,1255
28,3a,speeded_recognition,35,BC,blocked,2,correct,1112
28,3a,speeded_recognition,36,foil,intermixed,N/A,incorrect,1926
28,3a,speeded_recognition,37,AB,blocked,3,correct,1583
28,3a,speeded_recognition,38,BC,intermixed,6,correct,911
28,3a,speeded_recognition,39,BC,blocked,1,incorrect,958
28,3a,speeded_recognition,40,AC,intermixed,4,correct,1231
28,3a,speeded_recognition,41,AC,blocked,2,correct,655
28,3a,speeded_recognition,42,BC,intermixed,5,correct,878
28,3a,speeded_recognition,43,foil,intermixed,N/A,incorrect,1047
28,3a,speeded_recognition,44,AC,blocked,1,incorrect,2256
28,3a,speeded_recognition,45,BC,intermixed,6,correct,1183
28,3a,speeded_recognition,46,BC,blocked,3,correct,630
28,3a,speeded_recognition,47,BC,intermixed,5,correct,1279
28,3a,speeded_recognition,48,BC,blocked,1,correct,790
28,3a,explicit_inference,1,AC,intermixed,6,incorrect,2855
28,3a,explicit_inference,2,AC,blocked,2,incorrect,1918
28,3a,explicit_inference,3,AC,blocked,3,incorrect,1286
28,3a,explicit_inference,4,AC,intermixed,4,correct,1495
28,3a,explicit_inference,5,AC,blocked,1,correct,1687
28,3a,explicit_inference,6,AC,intermixed,5,correct,2776
28,3a,explicit_inference,7,AC,intermixed,6,correct,1758
28,3a,explicit_inference,8,AC,intermixed,5,correct,1855
28,3a,explicit_inference,9,AC,blocked,3,incorrect,1637
28,3a,explicit_inference,10,AC,intermixed,4,correct,1012
28,3a,explicit_inference,11,AC,blocked,2,incorrect,1455
28,3a,explicit_inference,12,AC,blocked,1,incorrect,1285
29,3a,speeded_recognition,1,AC,intermixed,6,incorrect,1340
29,3a,speeded_recognition,2,AB,blocked,3,correct,1317
29,3a,speeded_recognition,3,BC,intermixed,4,correct,1451
29,3a,speeded_recognition,4,foil,blocked,N/A,correct,1464
29,3a,speeded_recognition,5,AB,intermixed,6,correct,1001
29,3a,speeded_recognition,6,AB,blocked,1,correct,1367
29,3a,speeded_recognition,7,AB,intermixed,4,correct,1223
29,3a,speeded_recognition,8,foil,blocked,N/A,correct,1753
29,3a,speeded_recognition,9,AB,blocked,1,correct,1014
29,3a,speeded_recognition,10,BC,intermixed,6,incorrect,1728
29,3a,speeded_recognition,11,AB,blocked,2,correct,1334
29,3a,speeded_recognition,12,foil,blocked,N/A,correct,1119
29,3a,speeded_recognition,13,BC,intermixed,4,correct,809
29,3a,speeded_recognition,14,BC,blocked,3,incorrect,1454
29,3a,speeded_recognition,15,BC,intermixed,6,correct,1274
29,3a,speeded_recognition,16,BC,blocked,1,correct,1927
29,3a,speeded_recognition,17,AC,intermixed,4,incorrect,1051
29,3a,speeded_recognition,18,BC,blocked,3,correct,1077
29,3a,speeded_recognition,19,foil,intermixed,N/A,correct,1444
29,3a,speeded_recognition,20,foil,blocked,N/A,incorrect,1348
29,3a,speeded_recognition,21,AC,blocked,2,incorrect,1189
29,3a,speeded_recognition,22,foil,intermixed,N/A,incorrect,1168
29,3a,speeded_recognition,23,AB,blocked,3,correct,1140
29,3a,speeded_recognition,24,BC,intermixed,5,correct,1503
29,3a,speeded_recognition,25,AC,blocked,1,correct,1712
29,3a,speeded_recognition,26,BC,intermixed,5,correct,1367
29,3a,speeded_recognition,27,AC,blocked,3,correct,1567
29,3a,speeded_recognition,28,foil,intermixed,N/A,correct,1358
29,3a,speeded_recognition,29,AB,intermixed,4,correct,930
29,3a,speeded_recognition,30,BC,blocked,2,correct,1382
29,3a,speeded_recognition,31,AC,intermixed,5,incorrect,1410
29,3a,speeded_recognition,32,BC,blocked,1,incorrect,1415
29,3a,speeded_recognition,33,foil,intermixed,N/A,incorrect,1314
29,3a,speeded_recognition,34,AB,intermixed,5,correct,1446
29,3a,speeded_recognition,35,AC,blocked,3,correct,1223
29,3a,speeded_recognition,36,AC,intermixed,4,incorrect,861
29,3a,speeded_recognition,37,foil,intermixed,N/A,incorrect,1159
29,3a,speeded_recognition,38,AC,blocked,1,incorrect,1005
29,3a,speeded_recognition,39,AB,intermixed,6,correct,1073
29,3a,speeded_recognition,40,foil,intermixed,N/A,incorrect,1009
29,3a,speeded_recognition,41,AB,blocked,2,correct,894
29,3a,speeded_recognition,42,AC,intermixed,6,incorrect,1325
29,3a,speeded_recognition,43,AC,blocked,2,correct,1660
29,3a,speeded_recognition,44,AC,intermixed,5,correct,1601
29,3a,speeded_recognition,45,foil,blocked,N/A,correct,889
29,3a,speeded_recognition,46,BC,blocked,2,correct,1120
29,3a,speeded_recognition,47,foil,blocked,N/A,correct,1003
29,3a,speeded_recognition,48,AB,intermixed,5,correct,1094
29,3a,explicit_inference,1,AC,blocked,1,incorrect,2428
29,3a,explicit_inference,2,AC,blocked,3,incorrect,2366
29,3a,explicit_inference,3,AC,intermixed,4,incorrect,1010
29,3a,explicit_inference,4,AC,blocked,2,incorrect,2176
29,3a,explicit_inference,5,AC,intermixed,6,incorrect,1877
29,3a,explicit_inference,6,AC,intermixed,5,correct,2396
29,3a,explicit_inference,7,AC,intermixed,5,incorrect,1911
29,3a,explicit_inference,8,AC,blocked,3,incorrect,2038
29,3a,explicit_inference,9,AC,blocked,2,incorrect,1935
29,3a,explicit_inference,10,AC,blocked,1,correct,1968
29,3a,explicit_inference,11,AC,intermixed,4,incorrect,1530
29,3a,explicit_inference,12,AC,intermixed,6,correct,1806
30,3a,speeded_recognition,1,BC,intermixed,5,correct,1280
30,3a,speeded_recognition,2,foil,intermixed,N/A,correct,1125
30,3a,speeded_recognition,3,AC,blocked,3,correct,1661
30,3a,speeded_recognition,4,BC,intermixed,6,correct,1416
30,3a,speeded_recognition,5,BC,blocked,3,incorrect,2249
30,3a,speeded_recognition,6,AC,intermixed,4,correct,1350
30,3a,speeded_recognition,7,foil,blocked,N/A,correct,1641
30,3a,speeded_recognition,8,AC,intermixed,6,correct,2311
30,3a,speeded_recognition,9,AC,blocked,1,correct,1428
30,3a,speeded_recognition,10,foil,intermixed,N/A,correct,1970
30,3a,speeded_recognition,11,BC,intermixed,6,correct,1656
30,3a,speeded_recognition,12,BC,blocked,2,incorrect,1737
